loggingTime,loggingSample,identifierForVendor,deviceID,locationTimestamp_since1970,locationLatitude,locationLongitude,locationAltitude,locationSpeed,locationCourse,locationVerticalAccuracy,locationHorizontalAccuracy,locationHeadingTimestamp_since1970,locationHeadingX,locationHeadingY,locationHeadingZ,locationTrueHeading,locationMagneticHeading,locationHeadingAccuracy,accelerometerTimestamp_sinceReboot,accelerometerAccelerationX,accelerometerAccelerationY,accelerometerAccelerationZ,gyroTimestamp_sinceReboot,gyroRotationX,gyroRotationY,gyroRotationZ,motionTimestamp_sinceReboot,motionYaw,motionRoll,motionPitch,motionRotationRateX,motionRotationRateY,motionRotationRateZ,motionUserAccelerationX,motionUserAccelerationY,motionUserAccelerationZ,motionAttitudeReferenceFrame,motionQuaternionX,motionQuaternionY,motionQuaternionZ,motionQuaternionW,motionGravityX,motionGravityY,motionGravityZ,motionMagneticFieldX,motionMagneticFieldY,motionMagneticFieldZ,motionMagneticFieldCalibrationAccuracy,activityTimestamp_sinceReboot,activity,activityActivityConfidence,activityActivityStartDate,pedometerStartDate,pedometerNumberofSteps,pedometerDistance,pedometerFloorAscended,pedometerFloorDescended,pedometerEndDate,altimeterTimestamp_sinceReboot,altimeterReset,altimeterRelativeAltitude,altimeterPressure,IP_en0,IP_pdp_ip0,deviceOrientation,batteryState,batteryLevel,state
2016-11-02 11:08:06.685,1,27EF5EA5-EEF3-418E-90BD-90987371AE6E,my_iOS_device_1,1478110086.00165,37.35296992122881,-122.0354919322971,50.44507,0,85.4296875,4,10,1478110086.678711,25.39318656921387,-11.10626220703125,-32.815185546875,252.9053039550781,239.4461212158203,10,15925.354663375,0.214141845703125,-0.0176849365234375,-0.9843902587890625,15925.339530375,-0.6057426478412479,0.7330670479773913,-0.3447741663022032,15925.339530375,-0.1970519351067566,0.1952523513465578,0.01777690856500807,-0.529765248298645,0.6554275155067444,-0.3400401175022125,0.02139436453580856,-0.02725271508097649,0.03070946037769318,XArbitraryCorrectedZVertical,-0.01839064607485539,-0.09612447656430149,0.09703223043196771,-0.9904577807254383,0.1939834356307983,-0.01777597144246101,-0.980843722820282,24.88605117797852,-10.83196926116943,-34.20940399169922,2,15923.224146375,unknown,2,2016-11-02 11:08:04.512,2016-11-02 11:00:50.593,182,129.4188,0,0,2016-11-02 11:07:44.396,15921.980032,0,-1.641588,101.4381,10.17.84.226,22.177.68.227,5,1,0.6,0
2016-11-02 11:08:06.686,2,27EF5EA5-EEF3-418E-90BD-90987371AE6E,my_iOS_device_1,1478110086.00165,37.35296992122881,-122.0354919322971,50.44507,0,85.4296875,4,10,1478110086.678711,25.39318656921387,-11.10626220703125,-32.815185546875,252.9053039550781,239.4461212158203,10,15925.364345375,0.211029052734375,0.006683349609375,-0.996551513671875,15925.359507375,-0.8565165487274693,0.6991042872278288,-0.3386464989500399,15925.359507375,-0.2007180164133273,0.2095585436063806,0.001999276420029678,-0.7805142402648926,0.621461808681488,-0.3339199423789978,0.006114139687269926,-0.015685660764575,-0.006269368343055248,XArbitraryCorrectedZVertical,-0.01146785051288351,-0.1039617387874698,0.09953707314457981,-0.9895215087822421,0.2080277055501938,-0.001999275060370564,-0.9781208634376526,24.88605117797852,-10.83196926116943,-34.20940399169922,2,15923.224146375,unknown,2,2016-11-02 11:08:04.512,2016-11-02 11:00:50.593,182,129.4188,0,0,2016-11-02 11:07:44.396,15921.980032,0,-1.641588,101.4381,10.17.84.226,22.177.68.227,5,1,0.6,0
2016-11-02 11:08:06.687,3,27EF5EA5-EEF3-418E-90BD-90987371AE6E,my_iOS_device_1,1478110086.00165,37.35296992122881,-122.0354919322971,50.44507,0,85.4296875,4,10,1478110086.678711,25.39318656921387,-11.10626220703125,-32.815185546875,252.9053039550781,239.4461212158203,10,15925.374026375,0.1795196533203125,0.020660400390625,-0.9869537353515625,15925.359507375,-0.8565165487274693,0.6991042872278288,-0.3386464989500399,15925.359507375,-0.2007180164133273,0.2095585436063806,0.001999276420029678,-0.7805142402648926,0.621461808681488,-0.3339199423789978,0.006114139687269926,-0.015685660764575,-0.006269368343055248,XArbitraryCorrectedZVertical,-0.01146785051288351,-0.1039617387874698,0.09953707314457981,-0.9895215087822421,0.2080277055501938,-0.001999275060370564,-0.9781208634376526,24.88605117797852,-10.83196926116943,-34.20940399169922,2,15923.224146375,unknown,2,2016-11-02 11:08:04.512,2016-11-02 11:00:50.593,182,129.4188,0,0,2016-11-02 11:07:44.396,15921.980032,0,-1.641588,101.4381,10.17.84.226,22.177.68.227,5,1,0.6,0
2016-11-02 11:08:06.696,4,27EF5EA5-EEF3-418E-90BD-90987371AE6E,my_iOS_device_1,1478110086.00165,37.35296992122881,-122.0354919322971,50.44507,0,85.4296875,4,10,1478110086.678711,25.39318656921387,-11.10626220703125,-32.815185546875,252.9053039550781,239.4461212158203,10,15925.383706375,0.1479949951171875,0.0193939208984375,-0.9593048095703125,15925.369502375,-0.8050714670020817,0.463039823990442,-0.3356965154105591,15925.369502375,-0.2024037428739873,0.2140079111472189,-0.005983189712469722,-0.7290694713592529,0.3853976130485535,-0.3309699892997742,-0.03285462036728859,0.01467724610120058,-0.009783653542399406,XArbitraryCorrectedZVertical,-0.007830597900600762,-0.1065534640136499,0.1007687957556109,-0.9891565552758317,0.2123742699623108,0.005983153823763132,-0.9771701097488403,25.6746654510498,-9.854705810546875,-33.92089080810547,2,15923.224146375,unknown,2,2016-11-02 11:08:04.512,2016-11-02 11:00:50.593,182,129.4188,0,0,2016-11-02 11:07:44.396,15921.980032,0,-1.641588,101.4381,10.17.84.226,22.177.68.227,5,1,0.6,0
2016-11-02 11:08:06.698,5,27EF5EA5-EEF3-418E-90BD-90987371AE6E,my_iOS_device_1,1478110086.00165,37.35296992122881,-122.0354919322971,50.44507,0,85.4296875,4,10,1478110086.678711,25.39318656921387,-11.10626220703125,-32.815185546875,252.9053039550781,239.4461212158203,10,15925.393361375,0.1159820556640625,0.0189361572265625,-0.925689697265625,15925.369502375,-0.8050714670020817,0.463039823990442,-0.3356965154105591,15925.369502375,-0.2024037428739873,0.2140079111472189,-0.005983189712469722,-0.7290694713592529,0.3853976130485535,-0.3309699892997742,-0.03285462036728859,0.01467724610120058,-0.009783653542399406,XArbitraryCorrectedZVertical,-0.007830597900600762,-0.1065534640136499,0.1007687957556109,-0.9891565552758317,0.2123742699623108,0.005983153823763132,-0.9771701097488403,25.6746654510498,-9.854705810546875,-33.92089080810547,2,15923.224146375,unknown,2,2016-11-02 11:08:04.512,2016-11-02 11:00:50.593,182,129.4188,0,0,2016-11-02 11:07:44.396,15921.980032,0,-1.641588,101.4381,10.17.84.226,22.177.68.227,5,1,0.6,0
2016-11-02 11:08:06.705,6,27EF5EA5-EEF3-418E-90BD-90987371AE6E,my_iOS_device_1,1478110086.00165,37.35296992122881,-122.0354919322971,50.44507,0,85.4296875,4,10,1478110086.678711,25.39318656921387,-11.10626220703125,-32.815185546875,252.9053039550781,239.4461212158203,10,15925.403034375,0.084930419921875,0.011077880859375,-0.9131011962890625,15925.389472375,-0.7198100983870859,0.1706391173696281,-0.2190902733975487,15925.389472375,-0.204834803888135,0.217398936302781,-0.02013595025646937,-0.6438082456588745,0.09299706667661667,-0.2143637537956238,-0.09966473281383514,-0.001198432291857898,0.05057413130998611,XArbitraryCorrectedZVertical,-0.001134890339633747,-0.1089348363316317,0.1027163760289559,-0.9887270905324534,0.2156467884778976,0.02013458870351315,-0.9762638211250305,25.6746654510498,-9.854705810546875,-33.92089080810547,2,15923.224146375,unknown,2,2016-11-02 11:08:04.512,2016-11-02 11:00:50.593,182,129.4188,0,0,2016-11-02 11:07:44.396,15921.980032,0,-1.641588,101.4381,10.17.84.226,22.177.68.227,5,1,0.59,0
2016-11-02 11:08:06.763,7,27EF5EA5-EEF3-418E-90BD-90987371AE6E,my_iOS_device_1,1478110086.00165,37.35296992122881,-122.0354919322971,50.44507,0,85.4296875,4,10,1478110086.737048,25.91704368591309,-10.09347534179688,-32.98277282714844,252.1613006591797,238.7021179199219,10,15925.412747375,0.0705108642578125,0.0115203857421875,-0.8839569091796875,15925.399446375,-0.7329871531446889,0.1598186938606362,-0.1038965720267163,15925.399446375,-0.2047000808896756,0.2182425216205397,-0.0267591276200546,-0.6569856405258179,0.08217696100473404,-0.09917007386684418,-0.1315062344074249,-0.01567805372178555,0.06282876431941986,XArbitraryCorrectedZVertical,0.00210402114363971,-0.109684051716151,0.1030040817267319,-0.988612735625919,0.2164366543292999,0.02675593458116055,-0.9759299755096436,25.94481468200684,-8.967653274536133,-33.96142196655273,2,15925.411432375,unknown,2,2016-11-02 11:08:06.681,2016-11-02 11:00:50.593,182,129.4188,0,0,2016-11-02 11:07:44.396,15921.980032,0,-1.641588,101.4381,10.17.84.226,22.177.68.227,5,1,0.59,0
2016-11-02 11:08:06.765,8,27EF5EA5-EEF3-418E-90BD-90987371AE6E,my_iOS_device_1,1478110086.00165,37.35296992122881,-122.0354919322971,50.44507,0,85.4296875,4,10,1478110086.737048,25.91704368591309,-10.09347534179688,-32.98277282714844,252.1613006591797,238.7021179199219,10,15925.422428375,0.066253662109375,0.0178680419921875,-0.8827056884765625,15925.399446375,-0.7329871531446889,0.1598186938606362,-0.1038965720267163,15925.399446375,-0.2047000808896756,0.2182425216205397,-0.0267591276200546,-0.6569856405258179,0.08217696100473404,-0.09917007386684418,-0.1315062344074249,-0.01567805372178555,0.06282876431941986,XArbitraryCorrectedZVertical,0.00210402114363971,-0.109684051716151,0.1030040817267319,-0.988612735625919,0.2164366543292999,0.02675593458116055,-0.9759299755096436,25.94481468200684,-8.967653274536133,-33.96142196655273,2,15925.411432375,unknown,2,2016-11-02 11:08:06.681,2016-11-02 11:00:50.593,182,129.4188,0,0,2016-11-02 11:07:44.396,15921.980032,0,-1.641588,101.4381,10.17.84.226,22.177.68.227,5,1,0.59,0
2016-11-02 11:08:06.766,9,27EF5EA5-EEF3-418E-90BD-90987371AE6E,my_iOS_device_1,1478110086.00165,37.35296992122881,-122.0354919322971,50.44507,0,85.4296875,4,10,1478110086.737048,25.91704368591309,-10.09347534179688,-32.98277282714844,252.1613006591797,238.7021179199219,10,15925.432106375,0.0720977783203125,0.0274810791015625,-0.8931427001953125,15925.419435375,-0.7762869566760692,0.1913214927112925,0.1558545785780532,15925.419435375,-0.2004645697791442,0.2204033674414799,-0.03991574782340514,-0.7002855539321899,0.1136799156665802,0.1605810672044754,-0.1521954536437988,-0.02203710749745369,0.09232639521360397,XArbitraryCorrectedZVertical,0.008733153455357153,-0.1113898110552194,0.1016215142556644,-0.9885287602615151,0.2184491157531738,0.03990514948964119,-0.9750320911407471,25.94481468200684,-8.967653274536133,-33.96142196655273,2,15925.411432375,unknown,2,2016-11-02 11:08:06.681,2016-11-02 11:00:50.593,182,129.4188,0,0,2016-11-02 11:07:44.396,15921.980032,0,-1.641588,101.4381,10.17.84.226,22.177.68.227,5,1,0.59,0
2016-11-02 11:08:06.767,10,27EF5EA5-EEF3-418E-90BD-90987371AE6E,my_iOS_device_1,1478110086.00165,37.35296992122881,-122.0354919322971,50.44507,0,85.4296875,4,10,1478110086.766452,25.98689079284668,-9.325149536132812,-32.64761352539062,252.3224945068359,238.8633117675781,10,15925.441790375,0.084014892578125,0.0321502685546875,-0.8939666748046875,15925.429450375,-0.7349126186128162,0.1562900054162812,0.2868046062222304,15925.429450375,-0.1964642216602652,0.2214858092710892,-0.04589766739148857,-0.6589115262031555,0.07864873856306076,0.2915310859680176,-0.1473502516746521,-0.01840047538280487,0.08140203356742859,XArbitraryCorrectedZVertical,0.01186032485051276,-0.1121916406746889,0.09997154283662124,-0.9885737499448395,0.2194480299949646,0.04588155448436737,-0.9745447635650635,26.02904891967773,-8.321110725402832,-34.06138610839844,2,15925.411432375,unknown,2,2016-11-02 11:08:06.681,2016-11-02 11:00:50.593,182,129.4188,0,0,2016-11-02 11:07:44.396,15921.980032,0,-1.641588,101.4381,10.17.84.226,22.177.68.227,5,1,0.59,0
2016-11-02 11:08:06.768,11,27EF5EA5-EEF3-418E-90BD-90987371AE6E,my_iOS_device_1,1478110086.00165,37.35296992122881,-122.0354919322971,50.44507,0,85.4296875,4,10,1478110086.766452,25.98689079284668,-9.325149536132812,-32.64761352539062,252.3224945068359,238.8633117675781,10,15925.451473375,0.099273681640625,0.0432891845703125,-0.8924407958984375,15925.429450375,-0.7349126186128162,0.1562900054162812,0.2868046062222304,15925.429450375,-0.1964642216602652,0.2214858092710892,-0.04589766739148857,-0.6589115262031555,0.07864873856306076,0.2915310859680176,-0.1473502516746521,-0.01840047538280487,0.08140203356742859,XArbitraryCorrectedZVertical,0.01186032485051276,-0.1121916406746889,0.09997154283662124,-0.9885737499448395,0.2194480299949646,0.04588155448436737,-0.9745447635650635,26.02904891967773,-8.321110725402832,-34.06138610839844,2,15925.411432375,unknown,2,2016-11-02 11:08:06.681,2016-11-02 11:00:50.593,182,129.4188,0,0,2016-11-02 11:07:44.396,15921.980032,0,-1.641588,101.4381,10.17.84.226,22.177.68.227,5,1,0.59,0
2016-11-02 11:08:06.769,12,27EF5EA5-EEF3-418E-90BD-90987371AE6E,my_iOS_device_1,1478110086.00165,37.35296992122881,-122.0354919322971,50.44507,0,85.4296875,4,10,1478110086.766452,25.98689079284668,-9.325149536132812,-32.64761352539062,252.3224945068359,238.8633117675781,10,15925.461147375,0.1121063232421875,0.057769775390625,-0.89312744140625,15925.449432375,-0.538088502457202,-0.03046230181276236,0.5101362299718393,15925.449432375,-0.1855321316406534,0.2213188118149811,-0.05463891728030525,-0.4620875716209412,-0.1081034168601036,0.5148627161979675,-0.1199151873588562,-0.01132255047559738,0.08171206712722778,XArbitraryCorrectedZVertical,0.01680625402902254,-0.1124327292224506,0.09503577002183657,-0.988961391380591,0.2191888689994812,0.05461173504590988,-0.9741528630256653,26.02904891967773,-8.321110725402832,-34.06138610839844,2,15925.411432375,unknown,2,2016-11-02 11:08:06.681,2016-11-02 11:00:50.593,182,129.4188,0,0,2016-11-02 11:07:44.396,15921.980032,0,-1.641588,101.4381,10.17.84.226,22.177.68.227,5,1,0.59,0
2016-11-02 11:08:06.784,13,27EF5EA5-EEF3-418E-90BD-90987371AE6E,my_iOS_device_1,1478110086.00165,37.35296992122881,-122.0354919322971,50.44507,0,85.4296875,4,10,1478110086.766452,25.98689079284668,-9.325149536132812,-32.64761352539062,252.3224945068359,238.8633117675781,10,15925.470835375,0.1206207275390625,0.0588226318359375,-0.8739776611328125,15925.459424375,-0.4276626583859384,-0.1379259118035308,0.5762848903916634,15925.459424375,-0.17917661432821,0.2197732923664557,-0.05707968254860349,-0.3516620099544525,-0.2155667096376419,0.5810113549232483,-0.1055470034480095,0.0007210829062387347,0.08123002946376801,XArbitraryCorrectedZVertical,0.01844247884744701,-0.1117190253628087,0.09200953876709328,-0.9892992363899747,0.2176533192396164,0.05704869329929352,-0.9743574857711792,25.88401412963867,-8.103328704833984,-34.22402954101562,2,15925.411432375,unknown,2,2016-11-02 11:08:06.681,2016-11-02 11:00:50.593,182,129.4188,0,0,2016-11-02 11:07:44.396,15921.980032,0,-1.641588,101.4381,10.17.84.226,22.177.68.227,5,1,0.59,0
2016-11-02 11:08:06.786,14,27EF5EA5-EEF3-418E-90BD-90987371AE6E,my_iOS_device_1,1478110086.00165,37.35296992122881,-122.0354919322971,50.44507,0,85.4296875,4,10,1478110086.766452,25.98689079284668,-9.325149536132812,-32.64761352539062,252.3224945068359,238.8633117675781,10,15925.480518375,0.123870849609375,0.054595947265625,-0.8208160400390625,15925.459424375,-0.4276626583859384,-0.1379259118035308,0.5762848903916634,15925.459424375,-0.17917661432821,0.2197732923664557,-0.05707968254860349,-0.3516620099544525,-0.2155667096376419,0.5810113549232483,-0.1055470034480095,0.0007210829062387347,0.08123002946376801,XArbitraryCorrectedZVertical,0.01844247884744701,-0.1117190253628087,0.09200953876709328,-0.9892992363899747,0.2176533192396164,0.05704869329929352,-0.9743574857711792,25.88401412963867,-8.103328704833984,-34.22402954101562,2,15925.411432375,unknown,2,2016-11-02 11:08:06.681,2016-11-02 11:00:50.593,182,129.4188,0,0,2016-11-02 11:07:44.396,15921.980032,0,-1.641588,101.4381,10.17.84.226,22.177.68.227,5,1,0.59,0
2016-11-02 11:08:06.798,15,27EF5EA5-EEF3-418E-90BD-90987371AE6E,my_iOS_device_1,1478110086.00165,37.35296992122881,-122.0354919322971,50.44507,0,85.4296875,4,10,1478110086.796285,26.37105369567871,-9.360076904296875,-32.815185546875,252.4694213867188,239.0102386474609,10,15925.490192375,0.1447296142578125,0.06036376953125,-0.777923583984375,15925.479405375,-0.3717083123028286,-0.1150980938876986,0.6544340209994937,15925.479405375,-0.1655612087816352,0.2156696881923844,-0.06011783939875381,-0.2957078218460083,-0.1927387416362762,0.6591604351997375,-0.0897442027926445,-0.005485686007887125,0.1542525738477707,XArbitraryCorrectedZVertical,0.02088235054371265,-0.109679619097899,0.08539222836457534,-0.9900719549230835,0.2136150449514389,0.06008163467049599,-0.9750686287879944,25.88401412963867,-8.103328704833984,-34.22402954101562,2,15925.411432375,unknown,2,2016-11-02 11:08:06.681,2016-11-02 11:00:50.593,182,129.4188,0,0,2016-11-02 11:07:44.396,15921.980032,0,-1.641588,101.4381,10.17.84.226,22.177.68.227,5,1,0.59,0
2016-11-02 11:08:06.835,16,27EF5EA5-EEF3-418E-90BD-90987371AE6E,my_iOS_device_1,1478110086.00165,37.35296992122881,-122.0354919322971,50.44507,0,85.4296875,4,10,1478110086.826461,25.98689079284668,-9.185455322265625,-32.84870910644531,250.9852447509766,237.5260620117188,10,15925.499880375,0.1698455810546875,0.0623626708984375,-0.7970428466796875,15925.489396375,-0.4497399975065863,0.1178922825034097,0.6674736566448486,15925.489396375,-0.1582449578732498,0.2158360799526115,-0.06210560121499297,-0.3737398386001587,0.04025194048881531,0.672200083732605,-0.06902167201042175,-0.001701914705336094,0.196990892291069,XArbitraryCorrectedZVertical,0.02226143509243968,-0.1097596926999038,0.08187590693988277,-0.9903300329833455,0.2137512862682343,0.06206568330526352,-0.9749144911766052,25.50780868530273,-8.268590927124023,-34.46610641479492,2,15925.411432375,unknown,2,2016-11-02 11:08:06.681,2016-11-02 11:00:50.593,182,129.4188,0,0,2016-11-02 11:07:44.396,15921.980032,0,-1.641588,101.4381,10.17.84.226,22.177.68.227,5,1,0.59,0
2016-11-02 11:08:06.836,17,27EF5EA5-EEF3-418E-90BD-90987371AE6E,my_iOS_device_1,1478110086.00165,37.35296992122881,-122.0354919322971,50.44507,0,85.4296875,4,10,1478110086.826461,25.98689079284668,-9.185455322265625,-32.84870910644531,250.9852447509766,237.5260620117188,10,15925.509562375,0.175628662109375,0.06500244140625,-0.8177337646484375,15925.509378375,-0.6519378401097624,0.5411708451028597,0.648296499951297,15925.509378375,-0.1430444352868287,0.2234574225470478,-0.06898512168127938,-0.575937807559967,0.4635306596755981,0.6530228853225708,-0.05122973397374153,-0.006567747797816992,0.175774872303009,XArbitraryCorrectedZVertical,0.02622014698472873,-0.1135942222537693,0.0748086456289347,-0.9903597947724857,0.2210753113031387,0.06893041729927063,-0.9728177189826965,25.50780868530273,-8.268590927124023,-34.46610641479492,2,15925.411432375,unknown,2,2016-11-02 11:08:06.681,2016-11-02 11:00:50.593,182,129.4188,0,0,2016-11-02 11:07:44.396,15921.980032,0,-1.641588,101.4381,10.17.84.226,22.177.68.227,5,1,0.59,0
2016-11-02 11:08:06.837,18,27EF5EA5-EEF3-418E-90BD-90987371AE6E,my_iOS_device_1,1478110086.00165,37.35296992122881,-122.0354919322971,50.44507,0,85.4296875,4,10,1478110086.826461,25.98689079284668,-9.185455322265625,-32.84870910644531,250.9852447509766,237.5260620117188,10,15925.519243375,0.1881561279296875,0.071502685546875,-0.8151397705078125,15925.509378375,-0.6519378401097624,0.5411708451028597,0.648296499951297,15925.509378375,-0.1430444352868287,0.2234574225470478,-0.06898512168127938,-0.575937807559967,0.4635306596755981,0.6530228853225708,-0.05122973397374153,-0.006567747797816992,0.175774872303009,XArbitraryCorrectedZVertical,0.02622014698472873,-0.1135942222537693,0.0748086456289347,-0.9903597947724857,0.2210753113031387,0.06893041729927063,-0.9728177189826965,25.50780868530273,-8.268590927124023,-34.46610641479492,2,15925.411432375,unknown,2,2016-11-02 11:08:06.681,2016-11-02 11:00:50.593,182,129.4188,0,0,2016-11-02 11:07:44.396,15921.980032,0,-1.641588,101.4381,10.17.84.226,22.177.68.227,5,1,0.59,0
2016-11-02 11:08:06.839,19,27EF5EA5-EEF3-418E-90BD-90987371AE6E,my_iOS_device_1,1478110086.00165,37.35296992122881,-122.0354919322971,50.44507,0,85.4296875,4,10,1478110086.826461,25.98689079284668,-9.185455322265625,-32.84870910644531,250.9852447509766,237.5260620117188,10,15925.528925375,0.1959686279296875,0.079559326171875,-0.8070068359375,15925.519368375,-0.7482254945860133,0.6320006172411022,0.6236127250717887,15925.519368375,-0.1353893592232852,0.2293410734011173,-0.07389323619632153,-0.6722257137298584,0.5543606877326965,0.6283391118049622,-0.03855940327048302,-0.00232332362793386,0.1560192257165909,XArbitraryCorrectedZVertical,0.02887718662287851,-0.1165616228009126,0.0713696539049621,-0.9901948639960855,0.2267155349254608,0.07382600754499435,-0.9711589813232422,25.60481262207031,-8.284704208374023,-34.39022827148438,2,15925.411432375,unknown,2,2016-11-02 11:08:06.681,2016-11-02 11:00:50.593,182,129.4188,0,0,2016-11-02 11:07:44.396,15921.980032,0,-1.641588,101.4381,10.17.84.226,22.177.68.227,5,1,0.59,0
2016-11-02 11:08:06.842,20,27EF5EA5-EEF3-418E-90BD-90987371AE6E,my_iOS_device_1,1478110086.00165,37.35296992122881,-122.0354919322971,50.44507,0,85.4296875,4,10,1478110086.826461,25.98689079284668,-9.185455322265625,-32.84870910644531,250.9852447509766,237.5260620117188,10,15925.538607375,0.1908721923828125,0.08416748046875,-0.7950592041015625,15925.529363375,-0.8359124703218532,0.7006523827694918,0.6061767430989309,15925.529363375,-0.1276728260465394,0.2359876795668406,-0.07964711663136835,-0.75991290807724,0.6230126619338989,0.6109030842781067,-0.03709358349442482,-3.608084853112814e-06,0.1621947586536407,XArbitraryCorrectedZVertical,0.03195189512502017,-0.1199094468096879,0.0679765258184115,-0.9899393884987849,0.233062207698822,0.07956293225288391,-0.9692016243934631,25.60481262207031,-8.284704208374023,-34.39022827148438,2,15925.411432375,unknown,2,2016-11-02 11:08:06.681,2016-11-02 11:00:50.593,182,129.4188,0,0,2016-11-02 11:07:44.396,15921.980032,0,-1.641588,101.4381,10.17.84.226,22.177.68.227,5,1,0.59,0
2016-11-02 11:08:06.852,21,27EF5EA5-EEF3-418E-90BD-90987371AE6E,my_iOS_device_1,1478110086.00165,37.35296992122881,-122.0354919322971,50.44507,0,85.4296875,4,10,1478110086.826461,25.98689079284668,-9.185455322265625,-32.84870910644531,250.9852447509766,237.5260620117188,10,15925.548288375,0.2030029296875,0.089141845703125,-0.789398193359375,15925.539353375,-0.9173580617269835,0.7818284622723061,0.5632431242174364,15925.539353375,-0.1200782334634384,0.2434458874680685,-0.08622993770337337,-0.8413585424423218,0.7041888236999512,0.5679694414138794,-0.04928052425384521,-0.001955635147169232,0.1718479692935944,XArbitraryCorrectedZVertical,0.0354266583488837,-0.1236582593021569,0.06472781515167744,-0.9895776355244985,0.2401527166366577,0.08612311631441116,-0.9669072031974792,25.60481262207031,-8.284704208374023,-34.39022827148438,2,15925.411432375,unknown,2,2016-11-02 11:08:06.681,2016-11-02 11:00:50.593,182,129.4188,0,0,2016-11-02 11:07:44.396,15921.980032,0,-1.641588,101.4381,10.17.84.226,22.177.68.227,5,1,0.59,0
2016-11-02 11:08:06.872,22,27EF5EA5-EEF3-418E-90BD-90987371AE6E,my_iOS_device_1,1478110086.00165,37.35296992122881,-122.0354919322971,50.44507,0,85.4296875,4,10,1478110086.854636,26.05673789978027,-8.975906372070312,-32.84870910644531,249.8711090087891,236.4119262695312,10,15925.557962375,0.278594970703125,0.077850341796875,-0.8138885498046875,15925.549336375,-1.007293278055069,0.8482223998285265,0.5265684665298462,15925.549336375,-0.1125985193844679,0.2516788088084634,-0.09370105616454015,-0.9312939047813416,0.770582914352417,0.5312948226928711,-0.04493486881256104,-0.004422156605869532,0.1748489886522293,XArbitraryCorrectedZVertical,0.03933494762866582,-0.1277856472633856,0.06163195680907151,-0.989103175684108,0.247937798500061,0.09356400370597839,-0.9642471671104431,26.18407821655273,-7.92237377166748,-34.03763198852539,2,15925.411432375,unknown,2,2016-11-02 11:08:06.681,2016-11-02 11:00:50.593,182,129.4188,0,0,2016-11-02 11:07:44.396,15921.980032,0,-1.641588,101.4381,10.17.84.226,22.177.68.227,5,1,0.59,0
2016-11-02 11:08:06.877,23,27EF5EA5-EEF3-418E-90BD-90987371AE6E,my_iOS_device_1,1478110086.00165,37.35296992122881,-122.0354919322971,50.44507,0,85.4296875,4,10,1478110086.854636,26.05673789978027,-8.975906372070312,-32.84870910644531,249.8711090087891,236.4119262695312,10,15925.567652375,0.357391357421875,0.06085205078125,-0.792755126953125,15925.549336375,-1.007293278055069,0.8482223998285265,0.5265684665298462,15925.549336375,-0.1125985193844679,0.2516788088084634,-0.09370105616454015,-0.9312939047813416,0.770582914352417,0.5312948226928711,-0.04493486881256104,-0.004422156605869532,0.1748489886522293,XArbitraryCorrectedZVertical,0.03933494762866582,-0.1277856472633856,0.06163195680907151,-0.989103175684108,0.247937798500061,0.09356400370597839,-0.9642471671104431,26.18407821655273,-7.92237377166748,-34.03763198852539,2,15925.411432375,unknown,2,2016-11-02 11:08:06.681,2016-11-02 11:00:50.593,182,129.4188,0,0,2016-11-02 11:07:44.396,15921.980032,0,-1.641588,101.4381,10.17.84.226,22.177.68.227,5,1,0.59,0
2016-11-02 11:08:06.915,24,27EF5EA5-EEF3-418E-90BD-90987371AE6E,my_iOS_device_1,1478110086.00165,37.35296992122881,-122.0354919322971,50.44507,0,85.4296875,4,10,1478110086.884934,26.37105369567871,-8.731437683105469,-32.74815368652344,246.9387054443359,233.4795227050781,10,15925.577334375,0.3504486083984375,0.0708465576171875,-0.7243194580078125,15925.569326375,-1.26465211105262,0.8826983517201473,0.3337478804409482,15925.569326375,-0.09867377841743158,0.2687772678486922,-0.1124713477341518,-1.188652992248535,0.8050590753555298,0.3384742140769958,0.09351637959480286,-0.05138232186436653,0.1652497947216034,XArbitraryCorrectedZVertical,0.04903422598811507,-0.1363568147888429,0.05631652296549505,-0.9878415424466818,0.2638749778270721,0.1122343763709068,-0.9580049514770508,26.18407821655273,-7.92237377166748,-34.03763198852539,2,15925.411432375,unknown,2,2016-11-02 11:08:06.681,2016-11-02 11:00:50.593,182,129.4188,0,0,2016-11-02 11:07:44.396,15921.980032,0,-1.641588,101.4381,10.17.84.226,22.177.68.227,5,1,0.59,0
2016-11-02 11:08:06.916,25,27EF5EA5-EEF3-418E-90BD-90987371AE6E,my_iOS_device_1,1478110086.00165,37.35296992122881,-122.0354919322971,50.44507,0,85.4296875,4,10,1478110086.914352,27.10445976257324,-8.137725830078125,-32.71463012695312,245.8307495117188,232.3715667724609,10,15925.587013375,0.2686767578125,0.09210205078125,-0.678619384765625,15925.569326375,-1.26465211105262,0.8826983517201473,0.3337478804409482,15925.569326375,-0.09867377841743158,0.2687772678486922,-0.1124713477341518,-1.188652992248535,0.8050590753555298,0.3384742140769958,0.09351637959480286,-0.05138232186436653,0.1652497947216034,XArbitraryCorrectedZVertical,0.04903422598811507,-0.1363568147888429,0.05631652296549505,-0.9878415424466818,0.2638749778270721,0.1122343763709068,-0.9580049514770508,26.18407821655273,-7.92237377166748,-34.03763198852539,2,15925.411432375,unknown,2,2016-11-02 11:08:06.681,2016-11-02 11:00:50.593,182,129.4188,0,0,2016-11-02 11:07:44.396,15921.980032,0,-1.641588,101.4381,10.17.84.226,22.177.68.227,5,1,0.59,0
2016-11-02 11:08:06.918,26,27EF5EA5-EEF3-418E-90BD-90987371AE6E,my_iOS_device_1,1478110086.00165,37.35296992122881,-122.0354919322971,50.44507,0,85.4296875,4,10,1478110086.914352,27.10445976257324,-8.137725830078125,-32.71463012695312,245.8307495117188,232.3715667724609,10,15925.596688375,0.1869964599609375,0.106109619140625,-0.6672515869140625,15925.589309375,-1.483512819964204,1.161043160423632,0.1860742664155093,15925.589309375,-0.0869799493721496,0.2897207458304041,-0.1369463394119436,-1.407513976097107,1.083404183387756,0.1908006072044373,-0.0143331391736865,-0.0444166362285614,0.2707319855690002,XArbitraryCorrectedZVertical,0.06137775895936449,-0.1468232938756791,0.05278741863345769,-0.9858443992408807,0.2830098867416382,0.1365186870098114,-0.9493513703346252,26.89450454711914,-7.151565551757812,-33.65220642089844,2,15925.411432375,unknown,2,2016-11-02 11:08:06.681,2016-11-02 11:00:50.593,182,129.4188,0,0,2016-11-02 11:07:44.396,15921.980032,0,-1.641588,101.4381,10.17.84.226,22.177.68.227,5,1,0.59,0
2016-11-02 11:08:06.919,27,27EF5EA5-EEF3-418E-90BD-90987371AE6E,my_iOS_device_1,1478110086.00165,37.35296992122881,-122.0354919322971,50.44507,0,85.4296875,4,10,1478110086.914352,27.10445976257324,-8.137725830078125,-32.71463012695312,245.8307495117188,232.3715667724609,10,15925.606376375,0.170166015625,0.10235595703125,-0.6723175048828125,15925.599299375,-1.508792343979563,1.264243049509184,0.2565119477709061,15925.599299375,-0.08045811038071819,0.3022791898123804,-0.1499261561661772,-1.432793736457825,1.186604261398315,0.2612382769584656,-0.10736083984375,-0.04325549677014351,0.2766996026039124,XArbitraryCorrectedZVertical,0.06794077575481346,-0.1529982287434083,0.050915173256376,-0.9845726169884383,0.2943572998046875,0.1493651121854782,-0.9439511895179749,26.89450454711914,-7.151565551757812,-33.65220642089844,2,15925.411432375,unknown,2,2016-11-02 11:08:06.681,2016-11-02 11:00:50.593,182,129.4188,0,0,2016-11-02 11:07:44.396,15921.980032,0,-1.641588,101.4381,10.17.84.226,22.177.68.227,5,1,0.59,0
2016-11-02 11:08:06.920,28,27EF5EA5-EEF3-418E-90BD-90987371AE6E,my_iOS_device_1,1478110086.00165,37.35296992122881,-122.0354919322971,50.44507,0,85.4296875,4,10,1478110086.914352,27.10445976257324,-8.137725830078125,-32.71463012695312,245.8307495117188,232.3715667724609,10,15925.616056375,0.1787872314453125,0.0960540771484375,-0.6844024658203125,15925.599299375,-1.508792343979563,1.264243049509184,0.2565119477709061,15925.599299375,-0.08045811038071819,0.3022791898123804,-0.1499261561661772,-1.432793736457825,1.186604261398315,0.2612382769584656,-0.10736083984375,-0.04325549677014351,0.2766996026039124,XArbitraryCorrectedZVertical,0.06794077575481346,-0.1529982287434083,0.050915173256376,-0.9845726169884383,0.2943572998046875,0.1493651121854782,-0.9439511895179749,26.89450454711914,-7.151565551757812,-33.65220642089844,2,15925.411432375,unknown,2,2016-11-02 11:08:06.681,2016-11-02 11:00:50.593,182,129.4188,0,0,2016-11-02 11:07:44.396,15922.995169,0,-1.535104,101.4368,10.17.84.226,22.177.68.227,5,1,0.59,0
2016-11-02 11:08:06.931,29,27EF5EA5-EEF3-418E-90BD-90987371AE6E,my_iOS_device_1,1478110086.00165,37.35296992122881,-122.0354919322971,50.44507,0,85.4296875,4,10,1478110086.914352,27.10445976257324,-8.137725830078125,-32.71463012695312,245.8307495117188,232.3715667724609,10,15925.625730375,0.233856201171875,0.0703125,-0.669464111328125,15925.619283375,-1.380276711887827,1.367858125408679,0.5201475851416651,15925.619283375,-0.06375515757324332,0.3301371483007085,-0.1732772707094325,-1.304278373718262,1.290219664573669,0.5248738527297974,-0.140531063079834,-0.07635738700628281,0.2474291324615479,XArbitraryCorrectedZVertical,0.08009313302286412,-0.1663408971759568,0.04553245471506361,-0.9817548530752854,0.3193182945251465,0.1724114567041397,-0.9318315982818604,27.94662475585938,-5.94877815246582,-33.02315139770508,2,15925.411432375,unknown,2,2016-11-02 11:08:06.681,2016-11-02 11:00:50.593,182,129.4188,0,0,2016-11-02 11:07:44.396,15922.995169,0,-1.535104,101.4368,10.17.84.226,22.177.68.227,5,1,0.59,0
2016-11-02 11:08:06.939,30,27EF5EA5-EEF3-418E-90BD-90987371AE6E,my_iOS_device_1,1478110086.00165,37.35296992122881,-122.0354919322971,50.44507,0,85.4296875,4,10,1478110086.914352,27.10445976257324,-8.137725830078125,-32.71463012695312,245.8307495117188,232.3715667724609,10,15925.635419375,0.2918548583984375,0.059722900390625,-0.61114501953125,15925.629273375,-1.251512606866387,1.429150511580743,0.6413685526915649,15925.629273375,-0.05377559940334038,0.3452143025611236,-0.1826317333551578,-1.175514578819275,1.35151219367981,0.6460948586463928,-0.09891428053379059,-0.1113056614995003,0.2558891475200653,XArbitraryCorrectedZVertical,0.0852032817563626,-0.1733890805369717,0.04203089109004873,-0.9802601857275655,0.3327704966068268,0.1816181689500809,-0.9253532290458679,27.94662475585938,-5.94877815246582,-33.02315139770508,2,15925.411432375,unknown,2,2016-11-02 11:08:06.681,2016-11-02 11:00:50.593,182,129.4188,0,0,2016-11-02 11:07:44.396,15922.995169,0,-1.535104,101.4368,10.17.84.226,22.177.68.227,5,1,0.59,0
2016-11-02 11:08:06.949,31,27EF5EA5-EEF3-418E-90BD-90987371AE6E,my_iOS_device_1,1478110086.00165,37.35296992122881,-122.0354919322971,50.44507,0,85.4296875,4,10,1478110086.944553,27.90771293640137,-7.194778442382812,-32.14482116699219,243.2013092041016,229.7421264648438,10,15925.645102375,0.340728759765625,0.139129638671875,-0.5980377197265625,15925.629273375,-1.251512606866387,1.429150511580743,0.6413685526915649,15925.629273375,-0.05377559940334038,0.3452143025611236,-0.1826317333551578,-1.175514578819275,1.35151219367981,0.6460948586463928,-0.09891428053379059,-0.1113056614995003,0.2558891475200653,XArbitraryCorrectedZVertical,0.0852032817563626,-0.1733890805369717,0.04203089109004873,-0.9802601857275655,0.3327704966068268,0.1816181689500809,-0.9253532290458679,27.94662475585938,-5.94877815246582,-33.02315139770508,2,15925.411432375,unknown,2,2016-11-02 11:08:06.681,2016-11-02 11:00:50.593,182,129.4188,0,0,2016-11-02 11:07:44.396,15922.995169,0,-1.535104,101.4368,10.17.84.226,22.177.68.227,5,1,0.59,0
2016-11-02 11:08:06.991,32,27EF5EA5-EEF3-418E-90BD-90987371AE6E,my_iOS_device_1,1478110086.00165,37.35296992122881,-122.0354919322971,50.44507,0,85.4296875,4,10,1478110086.97418,29.0252857208252,-6.775688171386719,-32.07778930664062,242.3591156005859,228.8999328613281,10,15925.654784375,0.2633819580078125,0.1241455078125,-0.648193359375,15925.649238375,-0.8943707204618556,1.566811172539702,0.7654348415501053,15925.649238375,-0.03266587551942923,0.3795371893150086,-0.1957153022756422,-0.8183728456497192,1.489173173904419,0.7701611518859863,-0.02268876880407333,-0.05533859133720398,0.3130658864974976,XArbitraryCorrectedZVertical,0.09286876612556254,-0.1892711869979578,0.03438942484354003,-0.9769182041039084,0.3634175360202789,0.194468230009079,-0.9111036062240601,29.14306640625,-5.185956954956055,-32.10479354858398,2,15925.411432375,unknown,2,2016-11-02 11:08:06.681,2016-11-02 11:00:50.593,182,129.4188,0,0,2016-11-02 11:07:44.396,15922.995169,0,-1.535104,101.4368,10.17.84.226,22.177.68.227,5,1,0.59,0
2016-11-02 11:08:06.992,33,27EF5EA5-EEF3-418E-90BD-90987371AE6E,my_iOS_device_1,1478110086.00165,37.35296992122881,-122.0354919322971,50.44507,0,85.4296875,4,10,1478110086.97418,29.0252857208252,-6.775688171386719,-32.07778930664062,242.3591156005859,228.8999328613281,10,15925.664466375,0.208984375,0.1085205078125,-0.286224365234375,15925.659228375,0.4259904595374777,-0.06634946276601612,0.8981308376049385,15925.659228375,-0.025083147845738,0.3825254898489001,-0.1908788888110993,0.5019881129264832,-0.143987238407135,0.9028570652008057,-0.1031033769249916,-0.06557638943195343,0.2626821100711823,XArbitraryCorrectedZVertical,0.09117633893282633,-0.1903920848971899,0.03037048746890622,-0.9769930208134469,0.3664853274822235,0.1897218972444534,-0.9108754396438599,29.14306640625,-5.185956954956055,-32.10479354858398,2,15925.411432375,unknown,2,2016-11-02 11:08:06.681,2016-11-02 11:00:50.593,182,129.4188,0,0,2016-11-02 11:07:44.396,15922.995169,0,-1.535104,101.4368,10.17.84.226,22.177.68.227,5,1,0.59,0
2016-11-02 11:08:06.993,34,27EF5EA5-EEF3-418E-90BD-90987371AE6E,my_iOS_device_1,1478110086.00165,37.35296992122881,-122.0354919322971,50.44507,0,85.4296875,4,10,1478110086.97418,29.0252857208252,-6.775688171386719,-32.07778930664062,242.3591156005859,228.8999328613281,10,15925.674148375,0.132568359375,0.1520233154296875,-0.32666015625,15925.659228375,0.4259904595374777,-0.06634946276601612,0.8981308376049385,15925.659228375,-0.025083147845738,0.3825254898489001,-0.1908788888110993,0.5019881129264832,-0.143987238407135,0.9028570652008057,-0.1031033769249916,-0.06557638943195343,0.2626821100711823,XArbitraryCorrectedZVertical,0.09117633893282633,-0.1903920848971899,0.03037048746890622,-0.9769930208134469,0.3664853274822235,0.1897218972444534,-0.9108754396438599,29.14306640625,-5.185956954956055,-32.10479354858398,2,15925.411432375,unknown,2,2016-11-02 11:08:06.681,2016-11-02 11:00:50.593,182,129.4188,0,0,2016-11-02 11:07:44.396,15922.995169,0,-1.535104,101.4368,10.17.84.226,22.177.68.227,5,1,0.59,0
2016-11-02 11:08:06.997,35,27EF5EA5-EEF3-418E-90BD-90987371AE6E,my_iOS_device_1,1478110086.00165,37.35296992122881,-122.0354919322971,50.44507,0,85.4296875,4,10,1478110086.97418,29.0252857208252,-6.775688171386719,-32.07778930664062,242.3591156005859,228.8999328613281,10,15925.683815375,0.2386932373046875,0.2265472412109375,-0.4288482666015625,15925.669237375,1.058867789409434,0.2043483451834151,1.098196287123288,15925.669237375,-0.01902526695002329,0.384100263152675,-0.1777701572108741,1.134865283966064,0.1267107874155045,1.102922558784485,-0.2362512499094009,-0.0248119980096817,0.5858645439147949,XArbitraryCorrectedZVertical,0.08532364183285214,-0.1909385135802816,0.02624329257143261,-0.9775344749783086,0.3688196241855621,0.1768353134393692,-0.9125247001647949,29.79359436035156,-5.665598392486572,-31.4193115234375,2,15925.411432375,unknown,2,2016-11-02 11:08:06.681,2016-11-02 11:00:50.593,182,129.4188,0,0,2016-11-02 11:07:44.396,15922.995169,0,-1.535104,101.4368,10.17.84.226,22.177.68.227,5,1,0.59,0
2016-11-02 11:08:06.999,36,27EF5EA5-EEF3-418E-90BD-90987371AE6E,my_iOS_device_1,1478110086.00165,37.35296992122881,-122.0354919322971,50.44507,0,85.4296875,4,10,1478110086.97418,29.0252857208252,-6.775688171386719,-32.07778930664062,242.3591156005859,228.8999328613281,10,15925.693512375,0.3265380859375,0.326324462890625,-0.5309295654296875,15925.669237375,1.058867789409434,0.2043483451834151,1.098196287123288,15925.669237375,-0.01902526695002329,0.384100263152675,-0.1777701572108741,1.134865283966064,0.1267107874155045,1.102922558784485,-0.2362512499094009,-0.0248119980096817,0.5858645439147949,XArbitraryCorrectedZVertical,0.08532364183285214,-0.1909385135802816,0.02624329257143261,-0.9775344749783086,0.3688196241855621,0.1768353134393692,-0.9125247001647949,29.79359436035156,-5.665598392486572,-31.4193115234375,2,15925.411432375,unknown,2,2016-11-02 11:08:06.681,2016-11-02 11:00:50.593,182,129.4188,0,0,2016-11-02 11:07:44.396,15922.995169,0,-1.535104,101.4368,10.17.84.226,22.177.68.227,5,1,0.59,0
2016-11-02 11:08:07.007,37,27EF5EA5-EEF3-418E-90BD-90987371AE6E,my_iOS_device_1,1478110086.00165,37.35296992122881,-122.0354919322971,50.44507,0,85.4296875,4,10,1478110087.001107,29.58406639099121,-7.33447265625,-31.40742492675781,244.3444366455078,230.88525390625,10,15925.703193375,0.36572265625,0.395660400390625,-0.6011505126953125,15925.689219375,1.747235276386499,0.9943772130842932,1.366459699520278,15925.689219375,-0.007558557292502284,0.3985342970484738,-0.1384226406362873,1.823232531547546,0.916739821434021,1.371186017990112,-0.05781791731715202,0.1883434504270554,0.3818857073783875,XArbitraryCorrectedZVertical,0.06704080740689063,-0.197731887682701,0.01738503533339299,-0.9778064181023258,0.3843559920787811,0.1379810124635696,-0.912815272808075,29.79359436035156,-5.665598392486572,-31.4193115234375,2,15925.411432375,unknown,2,2016-11-02 11:08:06.681,2016-11-02 11:00:50.593,182,129.4188,0,0,2016-11-02 11:07:44.396,15922.995169,0,-1.535104,101.4368,10.17.84.226,22.177.68.227,5,1,0.59,0
2016-11-02 11:08:07.026,38,27EF5EA5-EEF3-418E-90BD-90987371AE6E,my_iOS_device_1,1478110086.00165,37.35296992122881,-122.0354919322971,50.44507,0,85.4296875,4,10,1478110087.001107,29.58406639099121,-7.33447265625,-31.40742492675781,244.3444366455078,230.88525390625,10,15925.712875375,0.5217132568359375,0.5227203369140625,-1.010116577148438,15925.699190375,1.884261306057692,1.287443443661518,1.472928885160011,15925.699190375,-0.001759837774264671,0.4105740223238837,-0.1149212683076211,1.96025824546814,1.209806323051453,1.477655053138733,-0.03078028187155724,0.2809919118881226,0.3096933662891388,XArbitraryCorrectedZVertical,0.05604405916581846,-0.2035611133358548,0.01256681598371953,-0.9773760850899171,0.3965029418468475,0.1146684736013412,-0.9108438491821289,29.9981803894043,-7.76520824432373,-30.76915740966797,2,15925.411432375,unknown,2,2016-11-02 11:08:06.681,2016-11-02 11:00:50.593,182,129.4188,0,0,2016-11-02 11:07:44.396,15922.995169,0,-1.535104,101.4368,10.17.84.226,22.177.68.227,5,1,0.59,0
2016-11-02 11:08:07.028,39,27EF5EA5-EEF3-418E-90BD-90987371AE6E,my_iOS_device_1,1478110086.00165,37.35296992122881,-122.0354919322971,50.44507,0,85.4296875,4,10,1478110087.001107,29.58406639099121,-7.33447265625,-31.40742492675781,244.3444366455078,230.88525390625,10,15925.722556375,0.71087646484375,0.55511474609375,-1.171188354492188,15925.699190375,1.884261306057692,1.287443443661518,1.472928885160011,15925.699190375,-0.001759837774264671,0.4105740223238837,-0.1149212683076211,1.96025824546814,1.209806323051453,1.477655053138733,-0.03078028187155724,0.2809919118881226,0.3096933662891388,XArbitraryCorrectedZVertical,0.05604405916581846,-0.2035611133358548,0.01256681598371953,-0.9773760850899171,0.3965029418468475,0.1146684736013412,-0.9108438491821289,29.9981803894043,-7.76520824432373,-30.76915740966797,2,15925.411432375,unknown,2,2016-11-02 11:08:06.681,2016-11-02 11:00:50.593,182,129.4188,0,0,2016-11-02 11:07:44.396,15922.995169,0,-1.535104,101.4368,10.17.84.226,22.177.68.227,5,1,0.59,0
2016-11-02 11:08:07.036,40,27EF5EA5-EEF3-418E-90BD-90987371AE6E,my_iOS_device_1,1478110086.00165,37.35296992122881,-122.0354919322971,50.44507,0,85.4296875,4,10,1478110087.031623,30.42224311828613,-8.032951354980469,-30.267822265625,245.8374938964844,232.3783111572266,10,15925.732216375,0.7200469970703125,0.505126953125,-1.021331787109375,15925.719187375,0.9840606596535442,1.34163877184463,1.416053617971951,15925.719187375,0.01258321750742507,0.4387775189288461,-0.07416879647892179,1.060057520866394,1.264001846313477,1.420779824256897,0.2872113287448883,0.4810139238834381,-0.2684054672718048,XArbitraryCorrectedZVertical,0.03755480932445248,-0.2172514624519527,0.001932241674555488,-0.9753910522458054,0.4236651360988617,0.07410081475973129,-0.9027828574180603,29.9981803894043,-7.76520824432373,-30.76915740966797,2,15925.411432375,unknown,2,2016-11-02 11:08:06.681,2016-11-02 11:00:50.593,182,129.4188,0,0,2016-11-02 11:07:44.396,15922.995169,0,-1.535104,101.4368,10.17.84.226,22.177.68.227,5,1,0.59,0
2016-11-02 11:08:07.076,41,27EF5EA5-EEF3-418E-90BD-90987371AE6E,my_iOS_device_1,1478110086.00165,37.35296992122881,-122.0354919322971,50.44507,0,85.4296875,4,10,1478110087.063473,31.15564918518066,-9.185440063476562,-28.89360046386719,241.6135864257812,228.1544036865234,10,15925.741919375,0.740692138671875,0.43475341796875,-1.073501586914062,15925.729171375,0.1088583074536429,1.69927227778639,1.297101929986908,15925.729171375,0.02287663700620391,0.4544302151760425,-0.06481842052150624,0.1848548352718353,1.621635675430298,1.301828145980835,0.2820183634757996,0.4403539001941681,-0.1247073635458946,XArbitraryCorrectedZVertical,0.0341438647921917,-0.2247709567400003,-0.003839322044793822,-0.9738056649606482,0.4380286335945129,0.06477303802967072,-0.8966244459152222,30.73104667663574,-10.63026428222656,-29.1467113494873,2,15925.411432375,unknown,2,2016-11-02 11:08:06.681,2016-11-02 11:00:50.593,182,129.4188,0,0,2016-11-02 11:07:44.396,15922.995169,0,-1.535104,101.4368,10.17.84.226,22.177.68.227,5,1,0.59,0
2016-11-02 11:08:07.077,42,27EF5EA5-EEF3-418E-90BD-90987371AE6E,my_iOS_device_1,1478110086.00165,37.35296992122881,-122.0354919322971,50.44507,0,85.4296875,4,10,1478110087.063473,31.15564918518066,-9.185440063476562,-28.89360046386719,241.6135864257812,228.1544036865234,10,15925.751600375,0.8271331787109375,0.2772674560546875,-1.103240966796875,15925.729171375,0.1088583074536429,1.69927227778639,1.297101929986908,15925.729171375,0.02287663700620391,0.4544302151760425,-0.06481842052150624,0.1848548352718353,1.621635675430298,1.301828145980835,0.2820183634757996,0.4403539001941681,-0.1247073635458946,XArbitraryCorrectedZVertical,0.0341438647921917,-0.2247709567400003,-0.003839322044793822,-0.9738056649606482,0.4380286335945129,0.06477303802967072,-0.8966244459152222,30.73104667663574,-10.63026428222656,-29.1467113494873,2,15925.411432375,unknown,2,2016-11-02 11:08:06.681,2016-11-02 11:00:50.593,182,129.4188,0,0,2016-11-02 11:07:44.396,15922.995169,0,-1.535104,101.4368,10.17.84.226,22.177.68.227,5,1,0.59,0
2016-11-02 11:08:07.078,43,27EF5EA5-EEF3-418E-90BD-90987371AE6E,my_iOS_device_1,1478110086.00165,37.35296992122881,-122.0354919322971,50.44507,0,85.4296875,4,10,1478110087.063473,31.15564918518066,-9.185440063476562,-28.89360046386719,241.6135864257812,228.1544036865234,10,15925.761253375,0.8611297607421875,0.174072265625,-0.89019775390625,15925.759145375,-1.499578871872325,2.059110348478518,0.6552422903903327,15925.759145375,0.06057064489606367,0.5155726535978622,-0.07547738797123429,-1.423582434654236,1.981473922729492,0.6599684357643127,0.3355037271976471,0.201861709356308,-0.2357074171304703,XArbitraryCorrectedZVertical,0.04418057487845384,-0.253537574422145,-0.01964483825027616,-0.96611637781876,0.4916294515132904,0.07540574669837952,-0.8675335645675659,31.87553787231445,-11.44269752502441,-27.56710433959961,2,15925.411432375,unknown,2,2016-11-02 11:08:06.681,2016-11-02 11:00:50.593,182,129.4188,0,0,2016-11-02 11:07:44.396,15922.995169,0,-1.535104,101.4368,10.17.84.226,22.177.68.227,5,1,0.59,0
2016-11-02 11:08:07.080,44,27EF5EA5-EEF3-418E-90BD-90987371AE6E,my_iOS_device_1,1478110086.00165,37.35296992122881,-122.0354919322971,50.44507,0,85.4296875,4,10,1478110087.063473,31.15564918518066,-9.185440063476562,-28.89360046386719,241.6135864257812,228.1544036865234,10,15925.770962375,0.821014404296875,0.214447021484375,-0.746551513671875,15925.759145375,-1.499578871872325,2.059110348478518,0.6552422903903327,15925.759145375,0.06057064489606367,0.5155726535978622,-0.07547738797123429,-1.423582434654236,1.981473922729492,0.6599684357643127,0.3355037271976471,0.201861709356308,-0.2357074171304703,XArbitraryCorrectedZVertical,0.04418057487845384,-0.253537574422145,-0.01964483825027616,-0.96611637781876,0.4916294515132904,0.07540574669837952,-0.8675335645675659,31.87553787231445,-11.44269752502441,-27.56710433959961,2,15925.411432375,unknown,2,2016-11-02 11:08:06.681,2016-11-02 11:00:50.593,182,129.4188,0,0,2016-11-02 11:07:44.396,15922.995169,0,-1.535104,101.4368,10.17.84.226,22.177.68.227,5,1,0.59,0
2016-11-02 11:08:07.084,45,27EF5EA5-EEF3-418E-90BD-90987371AE6E,my_iOS_device_1,1478110086.00165,37.35296992122881,-122.0354919322971,50.44507,0,85.4296875,4,10,1478110087.063473,31.15564918518066,-9.185440063476562,-28.89360046386719,241.6135864257812,228.1544036865234,10,15925.780633375,0.798553466796875,0.266510009765625,-0.7142791748046875,15925.769151375,-1.62135138008398,2.108524503556611,0.4689429868627117,15925.769151375,0.07275743184891534,0.5368516543627959,-0.08606494445147092,-1.545355439186096,2.030888557434082,0.4736691117286682,0.3114742934703827,0.1284882873296738,0.1095909774303436,XArbitraryCorrectedZVertical,0.05108829913825137,-0.2632845227901895,-0.02363403646097476,-0.9630745963168378,0.5095401406288147,0.08595873415470123,-0.856142520904541,31.87553787231445,-11.44269752502441,-27.56710433959961,2,15925.411432375,unknown,2,2016-11-02 11:08:06.681,2016-11-02 11:00:50.593,182,129.4188,0,0,2016-11-02 11:07:44.396,15922.995169,0,-1.535104,101.4368,10.17.84.226,22.177.68.227,5,1,0.59,0
2016-11-02 11:08:07.095,46,27EF5EA5-EEF3-418E-90BD-90987371AE6E,my_iOS_device_1,1478110086.999777,37.35296992122881,-122.0354919322971,50.57123,0,85.4296875,4,10,1478110087.090694,31.5398120880127,-10.12838745117188,-27.6534423828125,237.5211334228516,224.0619506835938,10,15925.790315375,0.784149169921875,0.28399658203125,-0.711334228515625,15925.779141375,-1.585784597409863,1.873442746761463,0.3160394570885753,15925.779141375,0.08377313391395523,0.5565684296510213,-0.09721939579107985,-1.509788751602173,1.795806884765625,0.3207655847072601,0.2727723717689514,0.1694436818361282,0.130784347653389,XArbitraryCorrectedZVertical,0.0581697611762196,-0.2721847075444603,-0.02687935596353474,-0.9601089855253934,0.5257810950279236,0.09706632047891617,-0.8450635075569153,31.87553787231445,-11.44269752502441,-27.56710433959961,2,15925.411432375,unknown,2,2016-11-02 11:08:06.681,2016-11-02 11:00:50.593,182,129.4188,0,0,2016-11-02 11:07:44.396,15922.995169,0,-1.535104,101.4368,10.17.84.226,22.177.68.227,5,1,0.59,0
2016-11-02 11:08:07.117,47,27EF5EA5-EEF3-418E-90BD-90987371AE6E,my_iOS_device_1,1478110086.999777,37.35296992122881,-122.0354919322971,50.57123,0,85.4296875,4,10,1478110087.090694,31.5398120880127,-10.12838745117188,-27.6534423828125,237.5211334228516,224.0619506835938,10,15925.800004375,0.7219696044921875,0.2980804443359375,-0.701995849609375,15925.789133375,-1.536953674610497,1.441787743585387,0.2123990811587246,15925.789133375,0.09369508660542694,0.5723365828591471,-0.1083454238534309,-1.460958123207092,1.364152073860168,0.2171252071857452,0.245727151632309,0.1758630126714706,0.1243743672966957,XArbitraryCorrectedZVertical,0.06508706047615165,-0.2791225104518826,-0.02959248879743486,-0.9575899870635461,0.5384220480918884,0.10813357681036,-0.8357086181640625,33.27186965942383,-10.77706146240234,-26.14896011352539,2,15925.411432375,unknown,2,2016-11-02 11:08:06.681,2016-11-02 11:00:50.593,182,129.4188,0,0,2016-11-02 11:07:44.396,15922.995169,0,-1.535104,101.4368,10.17.84.226,22.177.68.227,5,1,0.59,0
2016-11-02 11:08:07.152,48,27EF5EA5-EEF3-418E-90BD-90987371AE6E,my_iOS_device_1,1478110086.999777,37.35296992122881,-122.0354919322971,50.57123,0,85.4296875,4,10,1478110087.120066,32.23828887939453,-10.75701904296875,-26.04459381103516,233.3932800292969,219.9340972900391,10,15925.809681375,0.682647705078125,0.3227386474609375,-0.6761322021484375,15925.789133375,-1.536953674610497,1.441787743585387,0.2123990811587246,15925.789133375,0.09369508660542694,0.5723365828591471,-0.1083454238534309,-1.460958123207092,1.364152073860168,0.2171252071857452,0.245727151632309,0.1758630126714706,0.1243743672966957,XArbitraryCorrectedZVertical,0.06508706047615165,-0.2791225104518826,-0.02959248879743486,-0.9575899870635461,0.5384220480918884,0.10813357681036,-0.8357086181640625,33.27186965942383,-10.77706146240234,-26.14896011352539,2,15925.411432375,unknown,2,2016-11-02 11:08:06.681,2016-11-02 11:00:50.593,182,129.4188,0,0,2016-11-02 11:07:44.396,15922.995169,0,-1.535104,101.4368,10.17.84.226,22.177.68.227,5,1,0.59,0
2016-11-02 11:08:07.154,49,27EF5EA5-EEF3-418E-90BD-90987371AE6E,my_iOS_device_1,1478110086.999777,37.35296992122881,-122.0354919322971,50.57123,0,85.4296875,4,10,1478110087.149489,33.67017364501953,-10.16331481933594,-25.00554656982422,233.2386932373047,219.7795104980469,10,15925.819368375,0.6153717041015625,0.4033203125,-0.70953369140625,15925.809115375,-1.83847357743596,1.158268412883878,0.2662055878226856,15925.809115375,0.1155033203553449,0.5964477421607977,-0.1325511779884429,-1.762478113174438,1.080632925033569,0.2709316909313202,0.1258679181337357,0.1905752718448639,0.1439465135335922,XArbitraryCorrectedZVertical,0.08012036949881852,-0.2890352313402975,-0.03562409369536766,-0.9532944379276496,0.5567798018455505,0.1321633756160736,-0.8200787305831909,33.27186965942383,-10.77706146240234,-26.14896011352539,2,15925.411432375,unknown,2,2016-11-02 11:08:06.681,2016-11-02 11:00:50.593,182,129.4188,0,0,2016-11-02 11:07:44.396,15922.995169,0,-1.535104,101.4368,10.17.84.226,22.177.68.227,5,1,0.59,0
2016-11-02 11:08:07.155,50,27EF5EA5-EEF3-418E-90BD-90987371AE6E,my_iOS_device_1,1478110086.999777,37.35296992122881,-122.0354919322971,50.57123,0,85.4296875,4,10,1478110087.149489,33.67017364501953,-10.16331481933594,-25.00554656982422,233.2386932373047,219.7795104980469,10,15925.829050375,0.47772216796875,0.4797515869140625,-0.745819091796875,15925.819082375,-2.002918714742282,1.3562960115361,0.282118241652018,15925.819082375,0.1287525708442261,0.6105779039037436,-0.1464726221160019,-1.926923513412476,1.278660774230957,0.2868443429470062,0.04816997051239014,0.2573708593845367,0.1010099202394485,XArbitraryCorrectedZVertical,0.08892719736808104,-0.294652585080325,-0.03924534210085225,-0.9506479952101637,0.5672017335891724,0.1459494382143021,-0.8105435967445374,34.13239288330078,-9.811807632446289,-25.4094181060791,2,15925.411432375,unknown,2,2016-11-02 11:08:06.681,2016-11-02 11:00:50.593,182,129.4188,0,0,2016-11-02 11:07:44.396,15922.995169,0,-1.535104,101.4368,10.17.84.226,22.177.68.227,5,1,0.59,0
2016-11-02 11:08:07.156,51,27EF5EA5-EEF3-418E-90BD-90987371AE6E,my_iOS_device_1,1478110086.999777,37.35296992122881,-122.0354919322971,50.57123,0,85.4296875,4,10,1478110087.149489,33.67017364501953,-10.16331481933594,-25.00554656982422,233.2386932373047,219.7795104980469,10,15925.838732375,0.4017181396484375,0.4799041748046875,-0.699951171875,15925.819082375,-2.002918714742282,1.3562960115361,0.282118241652018,15925.819082375,0.1287525708442261,0.6105779039037436,-0.1464726221160019,-1.926923513412476,1.278660774230957,0.2868443429470062,0.04816997051239014,0.2573708593845367,0.1010099202394485,XArbitraryCorrectedZVertical,0.08892719736808104,-0.294652585080325,-0.03924534210085225,-0.9506479952101637,0.5672017335891724,0.1459494382143021,-0.8105435967445374,34.13239288330078,-9.811807632446289,-25.4094181060791,2,15925.411432375,unknown,2,2016-11-02 11:08:06.681,2016-11-02 11:00:50.593,182,129.4188,0,0,2016-11-02 11:07:44.396,15922.995169,0,-1.535104,101.4368,10.17.84.226,22.177.68.227,5,1,0.59,0
2016-11-02 11:08:07.157,52,27EF5EA5-EEF3-418E-90BD-90987371AE6E,my_iOS_device_1,1478110086.999777,37.35296992122881,-122.0354919322971,50.57123,0,85.4296875,4,10,1478110087.149489,33.67017364501953,-10.16331481933594,-25.00554656982422,233.2386932373047,219.7795104980469,10,15925.848396375,0.429962158203125,0.4180450439453125,-0.738861083984375,15925.839088375,-2.245292472918175,1.551007441998954,-0.594483868016829,15925.839088375,0.1507633177969986,0.6422211393547931,-0.1816694955043896,-2.169297456741333,1.473372340202332,-0.5897577404975891,-0.1874003112316132,0.2992323338985443,0.08763827383518219,XArbitraryCorrectedZVertical,0.1095003418585575,-0.3069445434285492,-0.04261763110141695,-0.9444461127621724,0.589118480682373,0.1806718409061432,-0.787589430809021,34.13239288330078,-9.811807632446289,-25.4094181060791,2,15925.411432375,unknown,2,2016-11-02 11:08:06.681,2016-11-02 11:00:50.593,182,129.4188,0,0,2016-11-02 11:07:44.396,15922.995169,0,-1.535104,101.4368,10.17.84.226,22.177.68.227,5,1,0.59,0
2016-11-02 11:08:07.162,53,27EF5EA5-EEF3-418E-90BD-90987371AE6E,my_iOS_device_1,1478110086.999777,37.35296992122881,-122.0354919322971,50.57123,0,85.4296875,4,10,1478110087.149489,33.67017364501953,-10.16331481933594,-25.00554656982422,233.2386932373047,219.7795104980469,10,15925.858095375,0.3445892333984375,0.6889801025390625,-0.8093719482421875,15925.839088375,-2.245292472918175,1.551007441998954,-0.594483868016829,15925.839088375,0.1507633177969986,0.6422211393547931,-0.1816694955043896,-2.169297456741333,1.473372340202332,-0.5897577404975891,-0.1874003112316132,0.2992323338985443,0.08763827383518219,XArbitraryCorrectedZVertical,0.1095003418585575,-0.3069445434285492,-0.04261763110141695,-0.9444461127621724,0.589118480682373,0.1806718409061432,-0.787589430809021,34.13239288330078,-9.811807632446289,-25.4094181060791,2,15925.411432375,unknown,2,2016-11-02 11:08:06.681,2016-11-02 11:00:50.593,182,129.4188,0,0,2016-11-02 11:07:44.396,15922.995169,0,-1.535104,101.4368,10.17.84.226,22.177.68.227,5,1,0.59,0
2016-11-02 11:08:07.171,54,27EF5EA5-EEF3-418E-90BD-90987371AE6E,my_iOS_device_1,1478110086.999777,37.35296992122881,-122.0354919322971,50.57123,0,85.4296875,4,10,1478110087.149489,33.67017364501953,-10.16331481933594,-25.00554656982422,233.2386932373047,219.7795104980469,10,15925.867775375,0.377777099609375,0.8055419921875,-0.849853515625,15925.859071375,-2.348453479851812,2.06912543207387,-1.70807455782132,15925.859071375,0.1588374334693322,0.6799664214335998,-0.2325659318760278,-2.272458791732788,1.991490602493286,-1.703348517417908,-0.2672501504421234,0.4585049748420715,-0.0527123287320137,XArbitraryCorrectedZVertical,0.1353126661227786,-0.3214975474568567,-0.03572127619351718,-0.9365115054248153,0.6118394136428833,0.230475127696991,-0.7566596269607544,35.13962936401367,-8.301483154296875,-24.56058311462402,2,15925.411432375,unknown,2,2016-11-02 11:08:06.681,2016-11-02 11:00:50.593,182,129.4188,0,0,2016-11-02 11:07:44.396,15922.995169,0,-1.535104,101.4368,10.17.84.226,22.177.68.227,5,1,0.59,0
2016-11-02 11:08:07.181,55,27EF5EA5-EEF3-418E-90BD-90987371AE6E,my_iOS_device_1,1478110086.999777,37.35296992122881,-122.0354919322971,50.57123,0,85.4296875,4,10,1478110087.179017,34.82266235351562,-8.59173583984375,-23.49724578857422,231.8163146972656,218.3571319580078,10,15925.877462375,0.51025390625,0.7300872802734375,-0.8271331787109375,15925.869061375,-2.260405379472157,2.117405080527589,-2.505097419376964,15925.869061375,0.1549824450219172,0.6992076103380284,-0.2644190297027451,-2.184410810470581,2.039770603179932,-2.500371217727661,-0.2434652894735336,0.5441934466362,-0.1111013069748878,XArbitraryCorrectedZVertical,0.1497635188427205,-0.3289297528784191,-0.02707827098696566,-0.9320101251250013,0.6212424039840698,0.2613485455513,-0.7387521862983704,35.13962936401367,-8.301483154296875,-24.56058311462402,2,15925.411432375,unknown,2,2016-11-02 11:08:06.681,2016-11-02 11:00:50.593,182,129.4188,0,0,2016-11-02 11:07:44.396,15922.995169,0,-1.535104,101.4368,10.17.84.226,22.177.68.227,5,1,0.59,0
2016-11-02 11:08:07.190,56,27EF5EA5-EEF3-418E-90BD-90987371AE6E,my_iOS_device_1,1478110086.999777,37.35296992122881,-122.0354919322971,50.57123,0,85.4296875,4,10,1478110087.179017,34.82266235351562,-8.59173583984375,-23.49724578857422,231.8163146972656,218.3571319580078,10,15925.887123375,0.6701812744140625,0.5850830078125,-0.8247222900390625,15925.869061375,-2.260405379472157,2.117405080527589,-2.505097419376964,15925.869061375,0.1549824450219172,0.6992076103380284,-0.2644190297027451,-2.184410810470581,2.039770603179932,-2.500371217727661,-0.2434652894735336,0.5441934466362,-0.1111013069748878,XArbitraryCorrectedZVertical,0.1497635188427205,-0.3289297528784191,-0.02707827098696566,-0.9320101251250013,0.6212424039840698,0.2613485455513,-0.7387521862983704,35.13962936401367,-8.301483154296875,-24.56058311462402,2,15925.411432375,unknown,2,2016-11-02 11:08:06.681,2016-11-02 11:00:50.593,182,129.4188,0,0,2016-11-02 11:07:44.396,15922.995169,0,-1.535104,101.4368,10.17.84.226,22.177.68.227,5,1,0.59,0
2016-11-02 11:08:07.230,57,27EF5EA5-EEF3-418E-90BD-90987371AE6E,my_iOS_device_1,1478110086.999777,37.35296992122881,-122.0354919322971,50.57123,0,85.4296875,4,10,1478110087.208496,36.25454711914062,-5.972427368164062,-22.32412719726562,233.8657379150391,220.4065551757812,10,15925.896797375,0.791778564453125,0.5018157958984375,-0.85540771484375,15925.889046375,-1.562706974983781,2.825410983699008,-3.184609629413407,15925.889046375,0.1321550127490931,0.7412949375922192,-0.3308137646020075,-1.486712694168091,2.747776508331299,-3.179883718490601,0.03155048936605453,0.2602702379226685,-0.1271211206912994,XArbitraryCorrectedZVertical,0.1767282935023462,-0.3463618469841648,-0.00119502882622303,-0.9213029649010943,0.6386308073997498,0.3248127698898315,-0.6976011395454407,36.79269027709961,-4.962263107299805,-22.99139785766602,2,15925.411432375,unknown,2,2016-11-02 11:08:06.681,2016-11-02 11:00:50.593,182,129.4188,0,0,2016-11-02 11:07:44.396,15922.995169,0,-1.535104,101.4368,10.17.84.226,22.177.68.227,5,1,0.59,0
2016-11-02 11:08:07.232,58,27EF5EA5-EEF3-418E-90BD-90987371AE6E,my_iOS_device_1,1478110086.999777,37.35296992122881,-122.0354919322971,50.57123,0,85.4296875,4,10,1478110087.208496,36.25454711914062,-5.972427368164062,-22.32412719726562,233.8657379150391,220.4065551757812,10,15925.906506375,0.858795166015625,0.5111541748046875,-0.8966522216796875,15925.899036375,-1.151242993928249,3.148202086783152,-3.2327111123902,15925.899036375,0.1157350086033465,0.765631581524616,-0.3614198379482287,-1.075248956680298,3.070568084716797,-3.227985143661499,0.1435563862323761,0.1482131034135818,-0.1810390204191208,XArbitraryCorrectedZVertical,0.1876912096774043,-0.3571941552951157,0.01424682315099187,-0.9148668609491337,0.6482222080230713,0.3536027073860168,-0.674368679523468,36.79269027709961,-4.962263107299805,-22.99139785766602,2,15925.411432375,unknown,2,2016-11-02 11:08:06.681,2016-11-02 11:00:50.593,182,129.4188,0,0,2016-11-02 11:07:44.396,15922.995169,0,-1.535104,101.4368,10.17.84.226,22.177.68.227,5,1,0.59,0
2016-11-02 11:08:07.233,59,27EF5EA5-EEF3-418E-90BD-90987371AE6E,my_iOS_device_1,1478110086.999777,37.35296992122881,-122.0354919322971,50.57123,0,85.4296875,4,10,1478110087.208496,36.25454711914062,-5.972427368164062,-22.32412719726562,233.8657379150391,220.4065551757812,10,15925.916183375,0.900482177734375,0.5601959228515625,-0.9144744873046875,15925.899036375,-1.151242993928249,3.148202086783152,-3.2327111123902,15925.899036375,0.1157350086033465,0.765631581524616,-0.3614198379482287,-1.075248956680298,3.070568084716797,-3.227985143661499,0.1435563862323761,0.1482131034135818,-0.1810390204191208,XArbitraryCorrectedZVertical,0.1876912096774043,-0.3571941552951157,0.01424682315099187,-0.9148668609491337,0.6482222080230713,0.3536027073860168,-0.674368679523468,36.79269027709961,-4.962263107299805,-22.99139785766602,2,15925.411432375,unknown,2,2016-11-02 11:08:06.681,2016-11-02 11:00:50.593,182,129.4188,0,0,2016-11-02 11:07:44.396,15922.995169,0,-1.535104,101.4368,10.17.84.226,22.177.68.227,5,1,0.59,0
2016-11-02 11:08:07.234,60,27EF5EA5-EEF3-418E-90BD-90987371AE6E,my_iOS_device_1,1478110086.999777,37.35296992122881,-122.0354919322971,50.57123,0,85.4296875,4,10,1478110087.208496,36.25454711914062,-5.972427368164062,-22.32412719726562,233.8657379150391,220.4065551757812,10,15925.925850375,0.910064697265625,0.5859375,-0.9014129638671875,15925.919019375,-0.3568734397666512,3.406414196593964,-3.159855014448902,15925.919019375,0.07602457269901564,0.8160821157648821,-0.4147697431141344,-0.2808796465396881,3.32878041267395,-3.155128955841064,0.2337822020053864,0.1572167128324509,-0.2874825596809387,XArbitraryCorrectedZVertical,0.2036174269191223,-0.3808463917179573,0.04750954231756663,-0.900687966367376,0.666700005531311,0.4029791951179504,-0.6269919276237488,38.73799514770508,-0.4396495819091797,-20.15204238891602,2,15925.411432375,unknown,2,2016-11-02 11:08:06.681,2016-11-02 11:00:50.593,182,129.4188,0,0,2016-11-02 11:07:44.396,15922.995169,0,-1.535104,101.4368,10.17.84.226,22.177.68.227,5,1,0.59,0
2016-11-02 11:08:07.239,61,27EF5EA5-EEF3-418E-90BD-90987371AE6E,my_iOS_device_1,1478110086.999777,37.35296992122881,-122.0354919322971,50.57123,0,85.4296875,4,10,1478110087.208496,36.25454711914062,-5.972427368164062,-22.32412719726562,233.8657379150391,220.4065551757812,10,15925.935532375,0.914703369140625,0.6009521484375,-0.869384765625,15925.929009375,-0.02897865476947922,3.305080384484231,-3.139606201732703,15925.929009375,0.05297292126140232,0.8391288546925242,-0.4380544909035793,0.04701490700244904,3.227446794509888,-3.134880304336548,0.2362586259841919,0.1617590487003326,-0.2963856756687164,XArbitraryCorrectedZVertical,0.2088957232912733,-0.3922358197859266,0.06487226978637922,-0.8934792818416202,0.6738060712814331,0.4241784512996674,-0.6050272583961487,38.73799514770508,-0.4396495819091797,-20.15204238891602,2,15925.411432375,unknown,2,2016-11-02 11:08:06.681,2016-11-02 11:00:50.593,182,129.4188,0,0,2016-11-02 11:07:44.396,15922.995169,0,-1.535104,101.4368,10.17.84.226,22.177.68.227,5,1,0.59,0
2016-11-02 11:08:07.249,62,27EF5EA5-EEF3-418E-90BD-90987371AE6E,my_iOS_device_1,1478110086.999777,37.35296992122881,-122.0354919322971,50.57123,0,85.4296875,4,10,1478110087.240134,37.89598083496094,-2.864189147949219,-20.48064422607422,236.4008636474609,222.9416809082031,10,15925.945214375,0.9224090576171875,0.6106414794921875,-0.864593505859375,15925.929009375,-0.02897865476947922,3.305080384484231,-3.139606201732703,15925.929009375,0.05297292126140232,0.8391288546925242,-0.4380544909035793,0.04701490700244904,3.227446794509888,-3.134880304336548,0.2362586259841919,0.1617590487003326,-0.2963856756687164,XArbitraryCorrectedZVertical,0.2088957232912733,-0.3922358197859266,0.06487226978637922,-0.8934792818416202,0.6738060712814331,0.4241784512996674,-0.6050272583961487,38.73799514770508,-0.4396495819091797,-20.15204238891602,2,15925.411432375,unknown,2,2016-11-02 11:08:06.681,2016-11-02 11:00:50.593,182,129.4188,0,0,2016-11-02 11:07:44.396,15922.995169,0,-1.535104,101.4368,10.17.84.226,22.177.68.227,5,1,0.59,0
2016-11-02 11:08:07.261,63,27EF5EA5-EEF3-418E-90BD-90987371AE6E,my_iOS_device_1,1478110086.999777,37.35296992122881,-122.0354919322971,50.57123,0,85.4296875,4,10,1478110087.240134,37.89598083496094,-2.864189147949219,-20.48064422607422,236.4008636474609,222.9416809082031,10,15925.954896375,0.9921875,0.6048431396484375,-0.881561279296875,15925.948992375,0.190466085369159,2.70926040854851,-3.115763719441551,15925.948992375,0.003165869413964077,0.8746874286035032,-0.4822473105576914,0.2664594352245331,2.631627082824707,-3.111037731170654,0.2425776571035385,0.1468701213598251,-0.2964866459369659,XArbitraryCorrectedZVertical,0.2169693751071652,-0.4109390070759885,0.09974491910637068,-0.8798320145581467,0.6798313856124878,0.4637713730335236,-0.5681068301200867,40.37405395507812,3.549129486083984,-16.25638580322266,2,15925.411432375,unknown,2,2016-11-02 11:08:06.681,2016-11-02 11:00:50.593,182,129.4188,0,0,2016-11-02 11:07:44.396,15922.995169,0,-1.535104,101.4368,10.17.84.226,22.177.68.227,5,1,0.59,0
2016-11-02 11:08:07.269,64,27EF5EA5-EEF3-418E-90BD-90987371AE6E,my_iOS_device_1,1478110086.999777,37.35296992122881,-122.0354919322971,50.57123,0,85.4296875,4,10,1478110087.240134,37.89598083496094,-2.864189147949219,-20.48064422607422,236.4008636474609,222.9416809082031,10,15925.964577375,1.097015380859375,0.5591888427734375,-0.89501953125,15925.958982375,0.02507579219196809,2.339591278692355,-2.978519310560971,15925.958982375,-0.01991320522764273,0.8872866266602549,-0.50450809739157,0.1010688990354538,2.261958122253418,-2.973793268203735,0.3134268522262573,0.1214662566781044,-0.3287224471569061,XArbitraryCorrectedZVertical,0.2212761598612475,-0.4178725248257738,0.1158337772121628,-0.873499828351175,0.6787606477737427,0.4833768904209137,-0.5528388023376465,40.37405395507812,3.549129486083984,-16.25638580322266,2,15925.411432375,unknown,2,2016-11-02 11:08:06.681,2016-11-02 11:00:50.593,182,129.4188,0,0,2016-11-02 11:07:44.396,15922.995169,0,-1.535104,101.4368,10.17.84.226,22.177.68.227,5,1,0.59,0
2016-11-02 11:08:07.307,65,27EF5EA5-EEF3-418E-90BD-90987371AE6E,my_iOS_device_1,1478110086.999777,37.35296992122881,-122.0354919322971,50.57123,0,85.4296875,4,10,1478110087.297192,40.30573272705078,4.015838623046875,-15.08430480957031,249.3262481689453,235.8670654296875,10,15925.974261375,1.170379638671875,0.535308837890625,-0.8816986083984375,15925.958982375,0.02507579219196809,2.339591278692355,-2.978519310560971,15925.958982375,-0.01991320522764273,0.8872866266602549,-0.50450809739157,0.1010688990354538,2.261958122253418,-2.973793268203735,0.3134268522262573,0.1214662566781044,-0.3287224471569061,XArbitraryCorrectedZVertical,0.2212761598612475,-0.4178725248257738,0.1158337772121628,-0.873499828351175,0.6787606477737427,0.4833768904209137,-0.5528388023376465,40.37405395507812,3.549129486083984,-16.25638580322266,2,15925.411432375,unknown,2,2016-11-02 11:08:06.681,2016-11-02 11:00:50.593,182,129.4188,0,0,2016-11-02 11:07:44.396,15922.995169,0,-1.535104,101.4368,10.17.84.226,22.177.68.227,5,1,0.59,0
2016-11-02 11:08:07.309,66,27EF5EA5-EEF3-418E-90BD-90987371AE6E,my_iOS_device_1,1478110086.999777,37.35296992122881,-122.0354919322971,50.57123,0,85.4296875,4,10,1478110087.297192,40.30573272705078,4.015838623046875,-15.08430480957031,249.3262481689453,235.8670654296875,10,15925.983960375,1.246597290039062,0.53814697265625,-0.858184814453125,15925.968975375,-0.2453074964327247,1.985527740191846,-2.725791981015177,15925.968975375,-0.03915707353237434,0.8977091915927962,-0.5268442315280346,-0.1693146079778671,1.907894849777222,-2.721065998077393,0.4945060014724731,0.03250082954764366,-0.3428304195404053,XArbitraryCorrectedZVertical,0.2263463565035634,-0.4234775422919725,0.1299983307408046,-0.8674874823745258,0.6758736371994019,0.5028080344200134,-0.5388681888580322,41.06203460693359,7.238774299621582,-12.97843170166016,2,15925.411432375,unknown,2,2016-11-02 11:08:06.681,2016-11-02 11:00:50.593,182,129.4188,0,0,2016-11-02 11:07:44.396,15922.995169,0,-1.535104,101.4368,10.17.84.226,22.177.68.227,5,1,0.59,0
2016-11-02 11:08:07.310,67,27EF5EA5-EEF3-418E-90BD-90987371AE6E,my_iOS_device_1,1478110086.999777,37.35296992122881,-122.0354919322971,50.57123,0,85.4296875,4,10,1478110087.297192,40.30573272705078,4.015838623046875,-15.08430480957031,249.3262481689453,235.8670654296875,10,15925.993641375,1.299575805664062,0.5000457763671875,-0.8387451171875,15925.988931375,-0.7810414981701876,1.749952765962816,-2.028757236270449,15925.988931375,-0.06226100010353718,0.9199659687162194,-0.5693295873156771,-0.7050487995147705,1.672320008277893,-2.024031400680542,0.5765091776847839,-0.0009205337846651673,-0.3479023873806,XArbitraryCorrectedZVertical,0.2382622298250108,-0.4336933122108843,0.1513796834390529,-0.8557017075034001,0.6700881123542786,0.5390675067901611,-0.5102824568748474,41.09051513671875,8.940284729003906,-11.7716236114502,2,15925.411432375,unknown,2,2016-11-02 11:08:06.681,2016-11-02 11:00:50.593,182,129.4188,0,0,2016-11-02 11:07:44.396,15922.995169,0,-1.535104,101.4368,10.17.84.226,22.177.68.227,5,1,0.59,0
2016-11-02 11:08:07.311,68,27EF5EA5-EEF3-418E-90BD-90987371AE6E,my_iOS_device_1,1478110086.999777,37.35296992122881,-122.0354919322971,50.57123,0,85.4296875,4,10,1478110087.297192,40.30573272705078,4.015838623046875,-15.08430480957031,249.3262481689453,235.8670654296875,10,15926.003295375,1.317489624023438,0.4587249755859375,-0.8089141845703125,15925.998947375,-0.9515514522269469,1.948616860115566,-1.777967889049905,15925.998947375,-0.06736937613303179,0.9351154097807892,-0.5889259859623435,-0.8755587339401245,1.870984077453613,-1.773241996765137,0.6304643154144287,-0.05542248487472534,-0.3450399041175842,XArbitraryCorrectedZVertical,0.244403836882375,-0.4397887651713971,0.1595025052991029,-0.849359498298263,0.6691114902496338,0.5554682612419128,-0.4937052130699158,41.09051513671875,8.940284729003906,-11.7716236114502,2,15925.411432375,unknown,2,2016-11-02 11:08:06.681,2016-11-02 11:00:50.593,182,129.4188,0,0,2016-11-02 11:07:44.396,15922.995169,0,-1.535104,101.4368,10.17.84.226,22.177.68.227,5,1,0.59,0
2016-11-02 11:08:07.317,69,27EF5EA5-EEF3-418E-90BD-90987371AE6E,my_iOS_device_1,1478110086.999777,37.35296992122881,-122.0354919322971,50.57123,0,85.4296875,4,10,1478110087.297192,40.30573272705078,4.015838623046875,-15.08430480957031,249.3262481689453,235.8670654296875,10,15926.013005375,1.2852783203125,0.468048095703125,-0.871429443359375,15925.998947375,-0.9515514522269469,1.948616860115566,-1.777967889049905,15925.998947375,-0.06736937613303179,0.9351154097807892,-0.5889259859623435,-0.8755587339401245,1.870984077453613,-1.773241996765137,0.6304643154144287,-0.05542248487472534,-0.3450399041175842,XArbitraryCorrectedZVertical,0.244403836882375,-0.4397887651713971,0.1595025052991029,-0.849359498298263,0.6691114902496338,0.5554682612419128,-0.4937052130699158,41.09051513671875,8.940284729003906,-11.7716236114502,2,15925.411432375,unknown,2,2016-11-02 11:08:06.681,2016-11-02 11:00:50.593,182,129.4188,0,0,2016-11-02 11:07:44.396,15922.995169,0,-1.535104,101.4368,10.17.84.226,22.177.68.227,5,1,0.59,0
2016-11-02 11:08:07.326,70,27EF5EA5-EEF3-418E-90BD-90987371AE6E,my_iOS_device_1,1478110086.999777,37.35296992122881,-122.0354919322971,50.57123,0,85.4296875,4,10,1478110087.321638,41.00421142578125,7.298702239990234,-12.33585357666016,253.6865692138672,240.2273864746094,10,15926.022688375,1.219100952148438,0.4702301025390625,-0.895172119140625,15926.018922375,-1.002790405283962,2.968751900946997,-1.996155350837916,15926.018922375,-0.07399348596389882,0.9828769053862955,-0.630358333195858,-0.9267981648445129,2.891119718551636,-1.991429448127747,0.6130971908569336,-0.1213861703872681,-0.4233894646167755,XArbitraryCorrectedZVertical,0.256519615541239,-0.4584514149727959,0.1771855388630429,-0.8322411139626579,0.6721811294555664,0.5894342660903931,-0.4480399787425995,41.09051513671875,8.940284729003906,-11.7716236114502,2,15925.411432375,unknown,2,2016-11-02 11:08:06.681,2016-11-02 11:00:50.593,182,129.4188,0,0,2016-11-02 11:07:44.396,15922.995169,0,-1.535104,101.4368,10.17.84.226,22.177.68.227,5,1,0.59,0
2016-11-02 11:08:07.336,71,27EF5EA5-EEF3-418E-90BD-90987371AE6E,my_iOS_device_1,1478110086.999777,37.35296992122881,-122.0354919322971,50.57123,0,85.4296875,4,10,1478110087.321638,41.00421142578125,7.298702239990234,-12.33585357666016,253.6865692138672,240.2273864746094,10,15926.032357375,1.159759521484375,0.4737701416015625,-0.8874053955078125,15926.028921375,-0.6093475026927792,2.973733077449881,-2.066666002807181,15926.028921375,-0.081188976776997,1.007692135966453,-0.6511764719787387,-0.5333554744720459,2.896100997924805,-2.06193995475769,0.5465333461761475,-0.1358924508094788,-0.4705920517444611,XArbitraryCorrectedZVertical,0.2613221921404276,-0.4684236149809389,0.1879762294678426,-0.8227727304536412,0.67256760597229,0.6061225533485413,-0.4245800673961639,41.04103851318359,12.91490650177002,-7.467831611633301,2,15925.411432375,unknown,2,2016-11-02 11:08:06.681,2016-11-02 11:00:50.593,182,129.4188,0,0,2016-11-02 11:07:44.396,15922.995169,0,-1.535104,101.4368,10.17.84.226,22.177.68.227,5,1,0.59,0
2016-11-02 11:08:07.346,72,27EF5EA5-EEF3-418E-90BD-90987371AE6E,my_iOS_device_1,1478110086.999777,37.35296992122881,-122.0354919322971,50.57123,0,85.4296875,4,10,1478110087.321638,41.00421142578125,7.298702239990234,-12.33585357666016,253.6865692138672,240.2273864746094,10,15926.042051375,1.115692138671875,0.490631103515625,-0.884063720703125,15926.028921375,-0.6093475026927792,2.973733077449881,-2.066666002807181,15926.028921375,-0.081188976776997,1.007692135966453,-0.6511764719787387,-0.5333554744720459,2.896100997924805,-2.06193995475769,0.5465333461761475,-0.1358924508094788,-0.4705920517444611,XArbitraryCorrectedZVertical,0.2613221921404276,-0.4684236149809389,0.1879762294678426,-0.8227727304536412,0.67256760597229,0.6061225533485413,-0.4245800673961639,41.04103851318359,12.91490650177002,-7.467831611633301,2,15925.411432375,unknown,2,2016-11-02 11:08:06.681,2016-11-02 11:00:50.593,182,129.4188,0,0,2016-11-02 11:07:44.396,15922.995169,0,-1.535104,101.4368,10.17.84.226,22.177.68.227,5,1,0.59,0
2016-11-02 11:08:07.356,73,27EF5EA5-EEF3-418E-90BD-90987371AE6E,my_iOS_device_1,1478110086.999777,37.35296992122881,-122.0354919322971,50.57123,0,85.4296875,4,10,1478110087.347437,41.52806854248047,10.47679138183594,-9.017608642578125,259.4548950195312,245.9957275390625,10,15926.051732375,1.112152099609375,0.5167694091796875,-0.9030914306640625,15926.048902375,0.556270968483609,2.492203458643237,-1.238022896996808,15926.048902375,-0.1068027426456717,1.0445993043805,-0.6769552809315437,0.6322627663612366,2.414571762084961,-1.233296990394592,0.4416544437408447,-0.1357915252447128,-0.4925692677497864,XArbitraryCorrectedZVertical,0.2622531519314775,-0.4852587598239888,0.209050773026186,-0.8074930306901854,0.6740376949310303,0.626422643661499,-0.3914944529533386,40.91010284423828,14.21331214904785,-5.59248161315918,2,15925.411432375,unknown,2,2016-11-02 11:08:06.681,2016-11-02 11:00:50.593,182,129.4188,0,0,2016-11-02 11:07:44.396,15922.995169,0,-1.535104,101.4368,10.17.84.226,22.177.68.227,5,1,0.59,0
2016-11-02 11:08:07.390,74,27EF5EA5-EEF3-418E-90BD-90987371AE6E,my_iOS_device_1,1478110086.999777,37.35296992122881,-122.0354919322971,50.57123,0,85.4296875,4,10,1478110087.375773,41.49314117431641,12.67700576782227,-6.168609619140625,265.0971069335938,251.637939453125,10,15926.061409375,1.133163452148438,0.5321502685546875,-0.855010986328125,15926.058894375,1.027139953446666,2.046053402286077,-0.7397984539486755,15926.058894375,-0.1233305212197806,1.055044583351327,-0.6793722273583743,1.103131532669067,1.968421816825867,-0.7350725531578064,0.4353810548782349,-0.1115353554487228,-0.5194065570831299,XArbitraryCorrectedZVertical,0.2580993235414976,-0.4914695325794449,0.2176135127358715,-0.8027993502789442,0.6767710447311401,0.6283047795295715,-0.3836848735809326,40.91010284423828,14.21331214904785,-5.59248161315918,2,15925.411432375,unknown,2,2016-11-02 11:08:06.681,2016-11-02 11:00:50.593,182,129.4188,0,0,2016-11-02 11:07:44.396,15922.995169,0,-1.535104,101.4368,10.17.84.226,22.177.68.227,5,1,0.59,0
2016-11-02 11:08:07.391,75,27EF5EA5-EEF3-418E-90BD-90987371AE6E,my_iOS_device_1,1478110086.999777,37.35296992122881,-122.0354919322971,50.57123,0,85.4296875,4,10,1478110087.375773,41.49314117431641,12.67700576782227,-6.168609619140625,265.0971069335938,251.637939453125,10,15926.071094375,1.127731323242188,0.5239715576171875,-0.74267578125,15926.058894375,1.027139953446666,2.046053402286077,-0.7397984539486755,15926.058894375,-0.1233305212197806,1.055044583351327,-0.6793722273583743,1.103131532669067,1.968421816825867,-0.7350725531578064,0.4353810548782349,-0.1115353554487228,-0.5194065570831299,XArbitraryCorrectedZVertical,0.2580993235414976,-0.4914695325794449,0.2176135127358715,-0.8027993502789442,0.6767710447311401,0.6283047795295715,-0.3836848735809326,40.91010284423828,14.21331214904785,-5.59248161315918,2,15925.411432375,unknown,2,2016-11-02 11:08:06.681,2016-11-02 11:00:50.593,182,129.4188,0,0,2016-11-02 11:07:44.396,15922.995169,0,-1.535104,101.4368,10.17.84.226,22.177.68.227,5,1,0.59,0
2016-11-02 11:08:07.392,76,27EF5EA5-EEF3-418E-90BD-90987371AE6E,my_iOS_device_1,1478110086.999777,37.35296992122881,-122.0354919322971,50.57123,0,85.4296875,4,10,1478110087.375773,41.49314117431641,12.67700576782227,-6.168609619140625,265.0971069335938,251.637939453125,10,15926.080775375,1.11004638671875,0.534332275390625,-0.640625,15926.068878375,1.272918829392335,1.612436980967157,-0.396190485887818,15926.068878375,-0.1408373697283433,1.060431761121782,-0.6770680934583932,1.348910212516785,1.534805655479431,-0.3914646208286285,0.4476417303085327,-0.1025389954447746,-0.3619361519813538,XArbitraryCorrectedZVertical,0.2522328635543735,-0.4959927121256693,0.2247902934836178,-0.7998994536920935,0.6800895929336548,0.6265105605125427,-0.3807396292686462,40.69964599609375,15.51236438751221,-3.13621997833252,2,15925.411432375,unknown,2,2016-11-02 11:08:06.681,2016-11-02 11:00:50.593,182,129.4188,0,0,2016-11-02 11:07:44.396,15922.995169,0,-1.535104,101.4368,10.17.84.226,22.177.68.227,5,1,0.59,0
2016-11-02 11:08:07.395,77,27EF5EA5-EEF3-418E-90BD-90987371AE6E,my_iOS_device_1,1478110086.999777,37.35296992122881,-122.0354919322971,50.57123,0,85.4296875,4,10,1478110087.375773,41.49314117431641,12.67700576782227,-6.168609619140625,265.0971069335938,251.637939453125,10,15926.090431375,1.075363159179688,0.5850067138671875,-0.52154541015625,15926.078868375,1.313010855390714,1.261542870479952,-0.165929583297932,15926.078868375,-0.1576786796192892,1.06254381048905,-0.6721539889069019,1.389002084732056,1.183911681175232,-0.1612037271261215,0.4264728128910065,-0.08834061026573181,-0.2598289251327515,XArbitraryCorrectedZVertical,0.2457775149115687,-0.499194724839542,0.2306639286592703,-0.7982431909335123,0.6835735440254211,0.6226729154586792,-0.3807960748672485,40.69964599609375,15.51236438751221,-3.13621997833252,2,15925.411432375,unknown,2,2016-11-02 11:08:06.681,2016-11-02 11:00:50.593,182,129.4188,0,0,2016-11-02 11:07:44.396,15922.995169,0,-1.535104,101.4368,10.17.84.226,22.177.68.227,5,1,0.59,0
2016-11-02 11:08:07.405,78,27EF5EA5-EEF3-418E-90BD-90987371AE6E,my_iOS_device_1,1478110086.999777,37.35296992122881,-122.0354919322971,50.57123,0,85.4296875,4,10,1478110087.375773,41.49314117431641,12.67700576782227,-6.168609619140625,265.0971069335938,251.637939453125,10,15926.100137375,1.055740356445312,0.647979736328125,-0.385223388671875,15926.088867375,1.212771602489004,1.025494119892997,-0.003870638328321165,15926.088867375,-0.172594194853762,1.063259466449233,-0.6660792704046851,1.28876256942749,0.9478630423545837,0.0008552082581445575,0.3882241249084473,-0.03290135413408279,-0.1394072324037552,XArbitraryCorrectedZVertical,0.2394558005475002,-0.5015893064906238,0.2353222833797251,-0.7973032736313956,0.6871390342712402,0.6179080605506897,-0.3821381628513336,40.69964599609375,15.51236438751221,-3.13621997833252,2,15925.411432375,unknown,2,2016-11-02 11:08:06.681,2016-11-02 11:00:50.593,182,129.4188,0,0,2016-11-02 11:07:44.396,15922.995169,0,-1.535104,101.4368,10.17.84.226,22.177.68.227,5,1,0.59,0
2016-11-02 11:08:07.415,79,27EF5EA5-EEF3-418E-90BD-90987371AE6E,my_iOS_device_1,1478110086.999777,37.35296992122881,-122.0354919322971,50.57123,0,85.4296875,4,10,1478110087.405564,41.35344696044922,14.49304962158203,-4.358642578125,270.8319702148438,257.372802734375,10,15926.109819375,1.062576293945312,0.67779541015625,-0.2606964111328125,15926.108849375,0.8978693151858927,0.9791378063785328,0.3427083522446288,15926.108849375,-0.1941371306627333,1.067771089453309,-0.6516414302312801,0.9738602042198181,0.9015069007873535,0.3474341928958893,0.3591401875019073,0.0414874292910099,-0.001928114681504667,XArbitraryCorrectedZVertical,0.2275207521731785,-0.5065438483582699,0.2411590873670359,-0.7959208073679318,0.6966001987457275,0.606492280960083,-0.3832952678203583,40.73123931884766,15.56916236877441,-2.344722747802734,2,15925.411432375,unknown,2,2016-11-02 11:08:06.681,2016-11-02 11:00:50.593,182,129.4188,0,0,2016-11-02 11:07:44.396,15922.995169,0,-1.535104,101.4368,10.17.84.226,22.177.68.227,5,1,0.59,0
2016-11-02 11:08:07.424,80,27EF5EA5-EEF3-418E-90BD-90987371AE6E,my_iOS_device_1,1478110086.999777,37.35296992122881,-122.0354919322971,50.57123,0,85.4296875,4,10,1478110087.405564,41.35344696044922,14.49304962158203,-4.358642578125,270.8319702148438,257.372802734375,10,15926.119486375,1.05889892578125,0.667694091796875,-0.1835784912109375,15926.108849375,0.8978693151858927,0.9791378063785328,0.3427083522446288,15926.108849375,-0.1941371306627333,1.067771089453309,-0.6516414302312801,0.9738602042198181,0.9015069007873535,0.3474341928958893,0.3591401875019073,0.0414874292910099,-0.001928114681504667,XArbitraryCorrectedZVertical,0.2275207521731785,-0.5065438483582699,0.2411590873670359,-0.7959208073679318,0.6966001987457275,0.606492280960083,-0.3832952678203583,40.73123931884766,15.56916236877441,-2.344722747802734,2,15925.411432375,unknown,2,2016-11-02 11:08:06.681,2016-11-02 11:00:50.593,182,129.4188,0,0,2016-11-02 11:07:44.396,15922.995169,0,-1.535104,101.4368,10.17.84.226,22.177.68.227,5,1,0.59,0
2016-11-02 11:08:07.469,81,27EF5EA5-EEF3-418E-90BD-90987371AE6E,my_iOS_device_1,1478110086.999777,37.35296992122881,-122.0354919322971,50.57123,0,85.4296875,4,10,1478110087.442337,41.56299591064453,15.61061859130859,-2.682769775390625,274.9547119140625,261.4955444335938,10,15926.129183375,1.05999755859375,0.646636962890625,-0.176727294921875,15926.118841375,0.6927992533470662,1.025740462293829,0.5055023296751014,15926.118841375,-0.2003965553839805,1.073346181298151,-0.6435531332623646,0.7687898874282837,0.9481099247932434,0.510228157043457,0.3558846116065979,0.06765247136354446,0.1981556266546249,XArbitraryCorrectedZVertical,0.2219099800521181,-0.5097929959985013,0.2424379700666457,-0.795041440840716,0.7030143141746521,0.6000416278839111,-0.3817341327667236,40.73123931884766,15.56916236877441,-2.344722747802734,2,15925.411432375,unknown,2,2016-11-02 11:08:06.681,2016-11-02 11:00:50.593,182,129.4188,0,0,2016-11-02 11:07:44.396,15922.995169,0,-1.535104,101.4368,10.17.84.226,22.177.68.227,5,1,0.59,0
2016-11-02 11:08:07.470,82,27EF5EA5-EEF3-418E-90BD-90987371AE6E,my_iOS_device_1,1478110086.999777,37.35296992122881,-122.0354919322971,50.57123,0,85.4296875,4,10,1478110087.464567,41.66777038574219,15.99477767944336,-1.308540344238281,276.3757019042969,262.9165344238281,10,15926.138864375,1.041168212890625,0.593963623046875,-0.2007598876953125,15926.138824375,-0.1780799894553095,1.028023323980245,0.8815369471687637,15926.138824375,-0.1978591777094645,1.094327418926646,-0.6280612625020111,-0.1020895466208458,0.9503929615020752,0.8862627744674683,0.3409545421600342,0.05905986577272415,0.1943930387496948,XArbitraryCorrectedZVertical,0.2136343593484267,-0.5184594445808636,0.2401454679951867,-0.7923953047766245,0.7190430164337158,0.5875771045684814,-0.3711203336715698,40.96415710449219,15.03934669494629,-1.638898849487305,2,15925.411432375,unknown,2,2016-11-02 11:08:06.681,2016-11-02 11:00:50.593,182,129.4188,0,0,2016-11-02 11:07:44.396,15922.995169,0,-1.535104,101.4368,10.17.84.226,22.177.68.227,5,1,0.59,0
2016-11-02 11:08:07.472,83,27EF5EA5-EEF3-418E-90BD-90987371AE6E,my_iOS_device_1,1478110086.999777,37.35296992122881,-122.0354919322971,50.57123,0,85.4296875,4,10,1478110087.464567,41.66777038574219,15.99477767944336,-1.308540344238281,276.3757019042969,262.9165344238281,10,15926.148545375,1.014373779296875,0.573455810546875,-0.26641845703125,15926.138824375,-0.1780799894553095,1.028023323980245,0.8815369471687637,15926.138824375,-0.1978591777094645,1.094327418926646,-0.6280612625020111,-0.1020895466208458,0.9503929615020752,0.8862627744674683,0.3409545421600342,0.05905986577272415,0.1943930387496948,XArbitraryCorrectedZVertical,0.2136343593484267,-0.5184594445808636,0.2401454679951867,-0.7923953047766245,0.7190430164337158,0.5875771045684814,-0.3711203336715698,40.96415710449219,15.03934669494629,-1.638898849487305,2,15925.411432375,unknown,2,2016-11-02 11:08:06.681,2016-11-02 11:00:50.593,182,129.4188,0,0,2016-11-02 11:07:44.396,15922.995169,0,-1.535104,101.4368,10.17.84.226,22.177.68.227,5,1,0.59,0
2016-11-02 11:08:07.473,84,27EF5EA5-EEF3-418E-90BD-90987371AE6E,my_iOS_device_1,1478110086.999777,37.35296992122881,-122.0354919322971,50.57123,0,85.4296875,4,10,1478110087.464567,41.66777038574219,15.99477767944336,-1.308540344238281,276.3757019042969,262.9165344238281,10,15926.158228375,1.011184692382812,0.602630615234375,-0.3142242431640625,15926.148793375,-0.751813571522677,0.8166327819263336,1.118695436981955,15926.148793375,-0.1860765776467209,1.109238298030226,-0.6209757454690918,-0.6758233904838562,0.7390025854110718,1.123421192169189,0.2861677408218384,-0.00837321113795042,0.09578448534011841,XArbitraryCorrectedZVertical,0.2120165591439504,-0.5233999508247485,0.235400183841536,-0.7910045660884385,0.7282060384750366,0.5818290114402771,-0.3622029423713684,40.96415710449219,15.03934669494629,-1.638898849487305,2,15925.411432375,unknown,2,2016-11-02 11:08:06.681,2016-11-02 11:00:50.593,182,129.4188,0,0,2016-11-02 11:07:44.396,15922.995169,0,-1.535104,101.4368,10.17.84.226,22.177.68.227,5,1,0.59,0
2016-11-02 11:08:07.475,85,27EF5EA5-EEF3-418E-90BD-90987371AE6E,my_iOS_device_1,1478110086.999777,37.35296992122881,-122.0354919322971,50.57123,0,85.4296875,4,10,1478110087.464567,41.66777038574219,15.99477767944336,-1.308540344238281,276.3757019042969,262.9165344238281,10,15926.167885375,1.022842407226562,0.6430206298828125,-0.3126678466796875,15926.168797375,-1.701864598791473,0.1392969071327036,1.371546337202329,15926.168797375,-0.1436789364942894,1.139929160404201,-0.608320425081327,-1.625874638557434,0.06166695803403854,1.376272082328796,0.2655761241912842,0.03114062361419201,0.02851039916276932,XArbitraryCorrectedZVertical,0.2145444034092251,-0.5316045313488001,0.2188469545229727,-0.7896032748863187,0.7456085681915283,0.5714899897575378,-0.3427346348762512,41.40346527099609,13.8726167678833,-0.4836454391479492,2,15925.411432375,unknown,2,2016-11-02 11:08:06.681,2016-11-02 11:00:50.593,182,129.4188,0,0,2016-11-02 11:07:44.396,15922.995169,0,-1.535104,101.4368,10.17.84.226,22.177.68.227,5,1,0.59,0
2016-11-02 11:08:07.481,86,27EF5EA5-EEF3-418E-90BD-90987371AE6E,my_iOS_device_1,1478110086.999777,37.35296992122881,-122.0354919322971,50.57123,0,85.4296875,4,10,1478110087.464567,41.66777038574219,15.99477767944336,-1.308540344238281,276.3757019042969,262.9165344238281,10,15926.177590375,1.019027709960938,0.6072845458984375,-0.281982421875,15926.168797375,-1.701864598791473,0.1392969071327036,1.371546337202329,15926.168797375,-0.1436789364942894,1.139929160404201,-0.608320425081327,-1.625874638557434,0.06166695803403854,1.376272082328796,0.2655761241912842,0.03114062361419201,0.02851039916276932,XArbitraryCorrectedZVertical,0.2145444034092251,-0.5316045313488001,0.2188469545229727,-0.7896032748863187,0.7456085681915283,0.5714899897575378,-0.3427346348762512,41.40346527099609,13.8726167678833,-0.4836454391479492,2,15925.411432375,unknown,2,2016-11-02 11:08:06.681,2016-11-02 11:00:50.593,182,129.4188,0,0,2016-11-02 11:07:44.396,15922.995169,0,-1.535104,101.4368,10.17.84.226,22.177.68.227,5,1,0.59,0
2016-11-02 11:08:07.491,87,27EF5EA5-EEF3-418E-90BD-90987371AE6E,my_iOS_device_1,1478110086.999777,37.35296992122881,-122.0354919322971,50.57123,0,85.4296875,4,10,1478110087.464567,41.66777038574219,15.99477767944336,-1.308540344238281,276.3757019042969,262.9165344238281,10,15926.187271375,1.046600341796875,0.582366943359375,-0.2448577880859375,15926.168797375,-1.701864598791473,0.1392969071327036,1.371546337202329,15926.168797375,-0.1436789364942894,1.139929160404201,-0.608320425081327,-1.625874638557434,0.06166695803403854,1.376272082328796,0.2655761241912842,0.03114062361419201,0.02851039916276932,XArbitraryCorrectedZVertical,0.2145444034092251,-0.5316045313488001,0.2188469545229727,-0.7896032748863187,0.7456085681915283,0.5714899897575378,-0.3427346348762512,41.40346527099609,13.8726167678833,-0.4836454391479492,2,15925.411432375,unknown,2,2016-11-02 11:08:06.681,2016-11-02 11:00:50.593,182,129.4188,0,0,2016-11-02 11:07:44.396,15922.995169,0,-1.535104,101.4368,10.17.84.226,22.177.68.227,5,1,0.59,0
2016-11-02 11:08:07.500,88,27EF5EA5-EEF3-418E-90BD-90987371AE6E,my_iOS_device_1,1478110086.999777,37.35296992122881,-122.0354919322971,50.57123,0,85.4296875,4,10,1478110087.494012,41.45822143554688,14.66766738891602,-0.3700485229492188,274.7252807617188,261.26611328125,10,15926.196938375,0.9996337890625,0.5174407958984375,-0.215972900390625,15926.188781375,-2.335028751112831,0.1495684531410302,1.518069998269072,15926.188781375,-0.08392930003708846,1.173297939634711,-0.5986769246252289,-2.259038925170898,0.07193882018327713,1.522795796394348,0.2849261164665222,0.01881694421172142,0.07492926716804504,XArbitraryCorrectedZVertical,0.2231757802303651,-0.5387940642859266,0.1964828124050109,-0.7882182640856622,0.7616742253303528,0.5635499954223633,-0.3197870552539825,41.76469421386719,12.75298023223877,0.04796981811523438,2,15925.411432375,unknown,2,2016-11-02 11:08:06.681,2016-11-02 11:00:50.593,182,129.4188,0,0,2016-11-02 11:07:44.396,15922.995169,0,-1.535104,101.4368,10.17.84.226,22.177.68.227,5,1,0.59,0
2016-11-02 11:08:07.510,89,27EF5EA5-EEF3-418E-90BD-90987371AE6E,my_iOS_device_1,1478110086.999777,37.35296992122881,-122.0354919322971,50.57123,0,85.4296875,4,10,1478110087.494012,41.45822143554688,14.66766738891602,-0.3700485229492188,274.7252807617188,261.26611328125,10,15926.206630375,0.8486175537109375,0.392242431640625,-0.353515625,15926.198771375,-2.504217244636693,0.5019872233523058,1.654039019303612,15926.198771375,-0.04989615865123884,1.195674604514578,-0.5926820001731786,-2.428227663040161,0.4243578016757965,1.658764719963074,0.2278653830289841,-0.04114680737257004,0.08792415261268616,XArbitraryCorrectedZVertical,0.2278689203993164,-0.5441757316464364,0.1840356879603781,-0.7861802552595956,0.7717683911323547,0.5585876107215881,-0.3038970530033112,41.76469421386719,12.75298023223877,0.04796981811523438,2,15925.411432375,unknown,2,2016-11-02 11:08:06.681,2016-11-02 11:00:50.593,182,129.4188,0,0,2016-11-02 11:07:44.396,15922.995169,0,-1.535104,101.4368,10.17.84.226,22.177.68.227,5,1,0.59,0
2016-11-02 11:08:07.547,90,27EF5EA5-EEF3-418E-90BD-90987371AE6E,my_iOS_device_1,1478110086.999777,37.35296992122881,-122.0354919322971,50.57123,0,85.4296875,4,10,1478110087.539226,42.01700592041016,13.27070617675781,0.50140380859375,268.8467102050781,255.3875427246094,10,15926.216310375,1.165985107421875,0.4469451904296875,-0.350921630859375,15926.198771375,-2.504217244636693,0.5019872233523058,1.654039019303612,15926.198771375,-0.04989615865123884,1.195674604514578,-0.5926820001731786,-2.428227663040161,0.4243578016757965,1.658764719963074,0.2278653830289841,-0.04114680737257004,0.08792415261268616,XArbitraryCorrectedZVertical,0.2278689203993164,-0.5441757316464364,0.1840356879603781,-0.7861802552595956,0.7717683911323547,0.5585876107215881,-0.3038970530033112,41.76469421386719,12.75298023223877,0.04796981811523438,2,15925.411432375,unknown,2,2016-11-02 11:08:06.681,2016-11-02 11:00:50.593,182,129.4188,0,0,2016-11-02 11:07:44.396,15922.995169,0,-1.535104,101.4368,10.17.84.226,22.177.68.227,5,1,0.59,0
2016-11-02 11:08:07.548,91,27EF5EA5-EEF3-418E-90BD-90987371AE6E,my_iOS_device_1,1478110086.999777,37.35296992122881,-122.0354919322971,50.57123,0,85.4296875,4,10,1478110087.539226,42.01700592041016,13.27070617675781,0.50140380859375,268.8467102050781,255.3875427246094,10,15926.225988375,1.018264770507812,0.346160888671875,-0.19842529296875,15926.208762375,-2.807091364876462,0.7851342441334215,1.737033505198733,15926.208762375,-0.01279119429946854,1.222779260660672,-0.5857479619656368,-2.731101989746094,0.7075051069259644,1.741759181022644,0.3826418817043304,-0.105877622961998,-0.06673804670572281,XArbitraryCorrectedZVertical,0.2328868356720884,-0.551064361202294,0.1707290016068808,-0.7829070184853653,0.7833432555198669,0.5528228282928467,-0.2841835916042328,41.76469421386719,12.75298023223877,0.04796981811523438,2,15925.411432375,unknown,2,2016-11-02 11:08:06.681,2016-11-02 11:00:50.593,182,129.4188,0,0,2016-11-02 11:07:44.396,15922.995169,0,-1.535104,101.4368,10.17.84.226,22.177.68.227,5,1,0.59,0
2016-11-02 11:08:07.550,92,27EF5EA5-EEF3-418E-90BD-90987371AE6E,my_iOS_device_1,1478110086.999777,37.35296992122881,-122.0354919322971,50.57123,0,85.4296875,4,10,1478110087.539226,42.01700592041016,13.27070617675781,0.50140380859375,268.8467102050781,255.3875427246094,10,15926.235672375,0.938507080078125,0.47747802734375,-0.28411865234375,15926.228744375,-2.402892220958557,0.06211130820726402,1.581262549878908,15926.228744375,0.05874889781146711,1.267648939260891,-0.5741785119718066,-2.326903104782104,-0.015517707914114,1.585988283157349,0.2169121503829956,-0.1969843357801437,0.05222833529114723,XArbitraryCorrectedZVertical,0.2447464768122395,-0.5610457627847706,0.1449277629937366,-0.7773819895410873,0.8013526201248169,0.5431452393531799,-0.2506536245346069,42.47151184082031,10.01337337493896,1.68327808380127,2,15925.411432375,unknown,2,2016-11-02 11:08:06.681,2016-11-02 11:00:50.593,182,129.4188,0,0,2016-11-02 11:07:44.396,15922.995169,0,-1.535104,101.4368,10.17.84.226,22.177.68.227,5,1,0.59,0
2016-11-02 11:08:07.551,93,27EF5EA5-EEF3-418E-90BD-90987371AE6E,my_iOS_device_1,1478110086.999777,37.35296992122881,-122.0354919322971,50.57123,0,85.4296875,4,10,1478110087.539226,42.01700592041016,13.27070617675781,0.50140380859375,268.8467102050781,255.3875427246094,10,15926.245353375,0.9513702392578125,0.579559326171875,-0.4116058349609375,15926.238737375,-1.961354226977197,0.1651556686851549,1.890718939068916,15926.238737375,0.08743064685648166,1.283580958361265,-0.5623110427262868,-1.88536548614502,0.08752696216106415,1.895444631576538,0.1271380335092545,-0.0556647926568985,-0.04445428028702736,XArbitraryCorrectedZVertical,0.2471787082765258,-0.5648632576813882,0.1323095158409682,-0.776096887195293,0.8113690614700317,0.5331428050994873,-0.2396643757820129,42.47151184082031,10.01337337493896,1.68327808380127,2,15925.411432375,unknown,2,2016-11-02 11:08:06.681,2016-11-02 11:00:50.593,182,129.4188,0,0,2016-11-02 11:07:44.396,15922.995169,0,-1.535104,101.4368,10.17.84.226,22.177.68.227,5,1,0.59,0
2016-11-02 11:08:07.560,94,27EF5EA5-EEF3-418E-90BD-90987371AE6E,my_iOS_device_1,1478110086.999777,37.35296992122881,-122.0354919322971,50.57123,0,85.4296875,4,10,1478110087.55312,42.29640197753906,11.66420745849609,1.641014099121094,265.4375305175781,251.9783477783203,10,15926.255026375,0.7750244140625,0.4745330810546875,-0.3000640869140625,15926.248728375,-1.815391161319916,0.3874683670016995,1.875836928581445,15926.248728375,0.1135880144398173,1.29976372073971,-0.5490745940334575,-1.739402532577515,0.3098398149013519,1.880562663078308,0.1295014768838882,0.05766125395894051,-0.1832330375909805,XArbitraryCorrectedZVertical,0.2485518308835113,-0.569241238772175,0.1202768901568575,-0.7744158244378446,0.8218687772750854,0.521898090839386,-0.228372797369957,42.90736389160156,7.738014221191406,2.451898574829102,2,15925.411432375,unknown,2,2016-11-02 11:08:06.681,2016-11-02 11:00:50.593,182,129.4188,0,0,2016-11-02 11:07:44.396,15922.995169,0,-1.535104,101.4368,10.17.84.226,22.177.68.227,5,1,0.59,0
2016-11-02 11:08:07.570,95,27EF5EA5-EEF3-418E-90BD-90987371AE6E,my_iOS_device_1,1478110086.999777,37.35296992122881,-122.0354919322971,50.57123,0,85.4296875,4,10,1478110087.55312,42.29640197753906,11.66420745849609,1.641014099121094,265.4375305175781,251.9783477783203,10,15926.264714375,0.6597900390625,0.4468841552734375,-0.3458404541015625,15926.258718375,-1.420316007296623,0.8817180421228892,1.966115426374041,15926.258718375,0.1360062193173051,1.318079371263231,-0.5341848523250073,-1.344327449798584,0.8040895462036133,1.97084105014801,-0.05832133069634438,-0.03460654243826866,-0.08486251533031464,XArbitraryCorrectedZVertical,0.2483089179580093,-0.5751016403547309,0.1094291856824896,-0.7717681244030911,0.8333457708358765,0.5091395974159241,-0.2152015715837479,42.90736389160156,7.738014221191406,2.451898574829102,2,15925.411432375,unknown,2,2016-11-02 11:08:06.681,2016-11-02 11:00:50.593,182,129.4188,0,0,2016-11-02 11:07:44.396,15922.995169,0,-1.535104,101.4368,10.17.84.226,22.177.68.227,5,1,0.59,0
2016-11-02 11:08:07.578,96,27EF5EA5-EEF3-418E-90BD-90987371AE6E,my_iOS_device_1,1478110086.999777,37.35296992122881,-122.0354919322971,50.57123,0,85.4296875,4,10,1478110087.55312,42.29640197753906,11.66420745849609,1.641014099121094,265.4375305175781,251.9783477783203,10,15926.274396375,0.60797119140625,0.4756317138671875,-0.4635467529296875,15926.268709375,-0.7667802705328134,1.08270388011397,2.041634419089309,15926.268709375,0.1512903481942494,1.335645065053761,-0.5164750044884071,-0.6907918453216553,1.005075454711914,2.046360015869141,-0.1858440339565277,-0.0469338446855545,-0.143240362405777,XArbitraryCorrectedZVertical,0.2451902368091245,-0.5818777380830801,0.1003266744900127,-0.7689178136072518,0.8456341028213501,0.4938179850578308,-0.2026000916957855,42.90736389160156,7.738014221191406,2.451898574829102,2,15925.411432375,unknown,2,2016-11-02 11:08:06.681,2016-11-02 11:00:50.593,182,129.4188,0,0,2016-11-02 11:07:44.396,15922.995169,0,-1.535104,101.4368,10.17.84.226,22.177.68.227,5,1,0.59,0
2016-11-02 11:08:07.589,97,27EF5EA5-EEF3-418E-90BD-90987371AE6E,my_iOS_device_1,1478110086.999777,37.35296992122881,-122.0354919322971,50.57123,0,85.4296875,4,10,1478110087.582568,42.78533935546875,9.359218597412109,3.182823181152344,261.0635375976562,247.6043701171875,10,15926.284076375,0.46337890625,0.3894500732421875,-0.513153076171875,15926.278686375,-0.2553566684900297,1.004472457828457,1.876309107042716,15926.278686375,0.1595480108597762,1.349189916911292,-0.4983175582830285,-0.1793684959411621,0.9268444180488586,1.881034731864929,-0.2489363104104996,-0.00231666537001729,-0.270479679107666,XArbitraryCorrectedZVertical,0.2401990853819043,-0.5880228481040259,0.09321241764216034,-0.7667104894851818,0.8569074869155884,0.4779483675956726,-0.1930670589208603,43.21391296386719,5.096481323242188,3.676131248474121,2,15925.411432375,unknown,2,2016-11-02 11:08:06.681,2016-11-02 11:00:50.593,182,129.4188,0,0,2016-11-02 11:07:44.396,15922.995169,0,-1.535104,101.4368,10.17.84.226,22.177.68.227,5,1,0.59,0
2016-11-02 11:08:07.630,98,27EF5EA5-EEF3-418E-90BD-90987371AE6E,my_iOS_device_1,1478110086.999777,37.35296992122881,-122.0354919322971,50.57123,0,85.4296875,4,10,1478110087.611972,43.23935699462891,7.368553161621094,4.355941772460938,259.1310729980469,245.6719055175781,10,15926.293757375,0.117462158203125,0.22833251953125,-0.495025634765625,15926.288676375,-0.02198785690802121,0.8088773905159139,1.606318102046592,15926.288676375,0.1635068203330111,1.358931270889189,-0.4819082160877857,0.05400023981928825,0.7312493920326233,1.611043810844421,-0.402920126914978,-0.07402084022760391,-0.3268181979656219,XArbitraryCorrectedZVertical,0.2348441160719053,-0.5930268190853774,0.08775778213764859,-0.7651575031757468,0.866299033164978,0.4634709060192108,-0.1863348633050919,43.21391296386719,5.096481323242188,3.676131248474121,2,15925.411432375,unknown,2,2016-11-02 11:08:06.681,2016-11-02 11:00:50.593,182,129.4188,0,0,2016-11-02 11:07:44.396,15922.995169,0,-1.535104,101.4368,10.17.84.226,22.177.68.227,5,1,0.59,0
2016-11-02 11:08:07.631,99,27EF5EA5-EEF3-418E-90BD-90987371AE6E,my_iOS_device_1,1478110086.999777,37.35296992122881,-122.0354919322971,50.57123,0,85.4296875,4,10,1478110087.611972,43.23935699462891,7.368553161621094,4.355941772460938,259.1310729980469,245.6719055175781,10,15926.303414375,0.8356475830078125,0.54449462890625,-0.419525146484375,15926.298682375,0.01990899336110536,0.782497182022025,1.46939114196795,15926.298682375,0.1660846340182349,1.367476831144428,-0.4669026336862665,0.09589693695306778,0.7048693299293518,1.474116802215576,-0.7571110129356384,-0.2217900902032852,-0.3147163987159729,XArbitraryCorrectedZVertical,0.2296938183063383,-0.5975668415928904,0.08307314958256605,-0.7637103321803118,0.8745731711387634,0.450122594833374,-0.1803092360496521,43.21391296386719,5.096481323242188,3.676131248474121,2,15925.411432375,unknown,2,2016-11-02 11:08:06.681,2016-11-02 11:00:50.593,182,129.4188,0,0,2016-11-02 11:07:44.396,15922.995169,0,-1.535104,101.4368,10.17.84.226,22.177.68.227,5,1,0.59,0
2016-11-02 11:08:07.632,100,27EF5EA5-EEF3-418E-90BD-90987371AE6E,my_iOS_device_1,1478110086.999777,37.35296992122881,-122.0354919322971,50.57123,0,85.4296875,4,10,1478110087.611972,43.23935699462891,7.368553161621094,4.355941772460938,259.1310729980469,245.6719055175781,10,15926.313120375,0.5467987060546875,0.354034423828125,-0.3233642578125,15926.298682375,0.01990899336110536,0.782497182022025,1.46939114196795,15926.298682375,0.1660846340182349,1.367476831144428,-0.4669026336862665,0.09589693695306778,0.7048693299293518,1.474116802215576,-0.7571110129356384,-0.2217900902032852,-0.3147163987159729,XArbitraryCorrectedZVertical,0.2296938183063383,-0.5975668415928904,0.08307314958256605,-0.7637103321803118,0.8745731711387634,0.450122594833374,-0.1803092360496521,43.21391296386719,5.096481323242188,3.676131248474121,2,15925.411432375,unknown,2,2016-11-02 11:08:06.681,2016-11-02 11:00:50.593,182,129.4188,0,0,2016-11-02 11:07:44.396,15922.995169,0,-1.535104,101.4368,10.17.84.226,22.177.68.227,5,1,0.59,0
2016-11-02 11:08:07.634,101,27EF5EA5-EEF3-418E-90BD-90987371AE6E,my_iOS_device_1,1478110086.999777,37.35296992122881,-122.0354919322971,50.57123,0,85.4296875,4,10,1478110087.611972,43.23935699462891,7.368553161621094,4.355941772460938,259.1310729980469,245.6719055175781,10,15926.322774375,1.154098510742188,0.52679443359375,-0.286041259765625,15926.318644375,0.1487513953185939,0.993835259802462,0.3772096041666053,15926.318644375,0.1635901545004889,1.37803577955488,-0.4523766840015827,0.2247391045093536,0.9162076711654663,0.3819352388381958,-0.3359542191028595,-0.08306995779275894,-0.1510649919509888,XArbitraryCorrectedZVertical,0.2231470581593847,-0.6033703337933352,0.08064762505895391,-0.7613445943232664,0.8827528953552246,0.4371043741703033,-0.1722992658615112,43.3177375793457,3.099610328674316,4.571290493011475,2,15925.411432375,unknown,2,2016-11-02 11:08:06.681,2016-11-02 11:00:50.593,182,129.4188,0,0,2016-11-02 11:07:44.396,15922.995169,0,-1.535104,101.4368,10.17.84.226,22.177.68.227,5,1,0.59,0
2016-11-02 11:08:07.636,102,27EF5EA5-EEF3-418E-90BD-90987371AE6E,my_iOS_device_1,1478110086.999777,37.35296992122881,-122.0354919322971,50.57123,0,85.4296875,4,10,1478110087.611972,43.23935699462891,7.368553161621094,4.355941772460938,259.1310729980469,245.6719055175781,10,15926.332466375,0.761199951171875,0.2689666748046875,-0.072418212890625,15926.328654375,0.3599973277253142,0.8333276061678223,-0.01733025447758163,15926.328654375,0.1595624402134336,1.383918891378912,-0.4514505419610209,0.4359848201274872,0.7557002305984497,-0.01260462868958712,0.2699498236179352,0.09052322059869766,-0.1188631430268288,XArbitraryCorrectedZVertical,0.2213476870848875,-0.606148614895075,0.08253976602295036,-0.7594578626282081,0.8841487169265747,0.4362712204456329,-0.1671781092882156,43.3177375793457,3.099610328674316,4.571290493011475,2,15925.411432375,unknown,2,2016-11-02 11:08:06.681,2016-11-02 11:00:50.593,182,129.4188,0,0,2016-11-02 11:07:44.396,15922.995169,0,-1.535104,101.4368,10.17.84.226,22.177.68.227,5,1,0.59,0
2016-11-02 11:08:07.646,103,27EF5EA5-EEF3-418E-90BD-90987371AE6E,my_iOS_device_1,1478110086.999777,37.35296992122881,-122.0354919322971,50.57123,0,85.4296875,4,10,1478110087.641566,43.79814147949219,6.181137084960938,5.428512573242188,258.5352783203125,245.0760955810547,10,15926.342163375,0.830047607421875,0.4272918701171875,-0.259002685546875,15926.328654375,0.3599973277253142,0.8333276061678223,-0.01733025447758163,15926.328654375,0.1595624402134336,1.383918891378912,-0.4514505419610209,0.4359848201274872,0.7557002305984497,-0.01260462868958712,0.2699498236179352,0.09052322059869766,-0.1188631430268288,XArbitraryCorrectedZVertical,0.2213476870848875,-0.606148614895075,0.08253976602295036,-0.7594578626282081,0.8841487169265747,0.4362712204456329,-0.1671781092882156,43.3177375793457,3.099610328674316,4.571290493011475,2,15925.411432375,unknown,2,2016-11-02 11:08:06.681,2016-11-02 11:00:50.593,182,129.4188,0,0,2016-11-02 11:07:44.396,15922.995169,0,-1.535104,101.4368,10.17.84.226,22.177.68.227,5,1,0.59,0
2016-11-02 11:08:07.655,104,27EF5EA5-EEF3-418E-90BD-90987371AE6E,my_iOS_device_1,1478110086.999777,37.35296992122881,-122.0354919322971,50.57123,0,85.4296875,4,10,1478110087.641566,43.79814147949219,6.181137084960938,5.428512573242188,258.5352783203125,245.0760955810547,10,15926.351842375,0.943939208984375,0.422454833984375,-0.22052001953125,15926.338622375,0.3456146599422322,1.559386013104452,0.5312433795073713,15926.338622375,0.1554671651501446,1.39502726200271,-0.4468219361326455,0.4216019213199615,1.481758832931519,0.5359690189361572,-0.05788229033350945,-0.004809794016182423,-0.1013047099113464,XArbitraryCorrectedZVertical,0.2179372700752276,-0.6112727363827187,0.08384041227311584,-0.7561876574880018,0.8879299163818359,0.4321016669273376,-0.1576979756355286,43.22608947753906,2.705968856811523,5.577938079833984,2,15925.411432375,unknown,2,2016-11-02 11:08:06.681,2016-11-02 11:00:50.593,182,129.4188,0,0,2016-11-02 11:07:44.396,15922.995169,0,-1.535104,101.4368,10.17.84.226,22.177.68.227,5,1,0.59,0
2016-11-02 11:08:07.665,105,27EF5EA5-EEF3-418E-90BD-90987371AE6E,my_iOS_device_1,1478110086.999777,37.35296992122881,-122.0354919322971,50.57123,0,85.4296875,4,10,1478110087.641566,43.79814147949219,6.181137084960938,5.428512573242188,258.5352783203125,245.0760955810547,10,15926.361519375,0.8031158447265625,0.3574981689453125,-0.1251678466796875,15926.348612375,0.2215084236673406,1.393039911412032,0.8167819189473781,15926.348612375,0.1534547496632888,1.408370617648738,-0.4386405163229799,0.2974956035614014,1.315412878990173,0.8215075731277466,0.05052534863352776,-0.002254242775961757,-0.07411689311265945,XArbitraryCorrectedZVertical,0.2137647362348332,-0.6173354641883673,0.08342063907942104,-0.752490903050225,0.8934138417243958,0.4247090816497803,-0.1464031189680099,43.22608947753906,2.705968856811523,5.577938079833984,2,15925.411432375,unknown,2,2016-11-02 11:08:06.681,2016-11-02 11:00:50.593,182,129.4188,0,0,2016-11-02 11:07:44.396,15922.995169,0,-1.535104,101.4368,10.17.84.226,22.177.68.227,5,1,0.59,0
2016-11-02 11:08:07.676,106,27EF5EA5-EEF3-418E-90BD-90987371AE6E,my_iOS_device_1,1478110086.999777,37.35296992122881,-122.0354919322971,50.57123,0,85.4296875,4,10,1478110087.670693,43.693359375,4.749252319335938,6.668670654296875,257.7822265625,244.3230438232422,10,15926.371193375,0.705047607421875,0.4032135009765625,-0.10845947265625,15926.358631375,0.236209072884578,1.063373591657739,0.909544347088691,15926.358631375,0.1516361816725453,1.417996301010211,-0.4293897359543004,0.3122215270996094,0.9857445955276489,0.9142621159553528,-0.09551060944795609,-0.05881784856319427,0.01322100590914488,XArbitraryCorrectedZVertical,0.209426630924346,-0.6220498854630286,0.08214032485911255,-0.7499649280380565,0.898626446723938,0.4163160026073456,-0.1383888572454453,43.22608947753906,2.705968856811523,5.577938079833984,2,15925.411432375,unknown,2,2016-11-02 11:08:06.681,2016-11-02 11:00:50.593,182,129.4188,0,0,2016-11-02 11:07:44.396,15922.995169,0,-1.535104,101.4368,10.17.84.226,22.177.68.227,5,1,0.59,0
2016-11-02 11:08:07.709,107,27EF5EA5-EEF3-418E-90BD-90987371AE6E,my_iOS_device_1,1478110086.999777,37.35296992122881,-122.0354919322971,50.57123,0,85.4296875,4,10,1478110087.700432,43.93782806396484,3.387214660644531,7.64068603515625,256.8648986816406,243.4057312011719,10,15926.380881375,0.759368896484375,0.5106658935546875,-0.10595703125,15926.368622375,0.2301866003954728,0.9642070600431125,0.9597923379040881,15926.368622375,0.1498496682093843,1.42632305084053,-0.419498200283193,0.3061988949775696,0.8865782022476196,0.9645100831985474,-0.1987310349941254,-0.004088712856173515,0.02302849106490612,XArbitraryCorrectedZVertical,0.2049290419615421,-0.6263067184286011,0.08046592366090309,-0.7478430432525908,0.903778612613678,0.40730220079422,-0.1314879655838013,43.04663848876953,1.732795715332031,7.13545036315918,2,15925.411432375,unknown,2,2016-11-02 11:08:06.681,2016-11-02 11:00:50.593,182,129.4188,0,0,2016-11-02 11:07:44.396,15922.995169,0,-1.535104,101.4368,10.17.84.226,22.177.68.227,5,1,0.59,0
2016-11-02 11:08:07.710,108,27EF5EA5-EEF3-418E-90BD-90987371AE6E,my_iOS_device_1,1478110086.999777,37.35296992122881,-122.0354919322971,50.57123,0,85.4296875,4,10,1478110087.700432,43.93782806396484,3.387214660644531,7.64068603515625,256.8648986816406,243.4057312011719,10,15926.390536375,0.56378173828125,0.411651611328125,-0.06195068359375,15926.378612375,0.2653698878726187,0.9080039747141893,0.945339362668228,15926.378612375,0.1477846469171562,1.433973408091274,-0.4095033782998486,0.3413821160793304,0.8303752541542053,0.9500571489334106,-0.1493768244981766,0.1125120744109154,0.01916195079684258,XArbitraryCorrectedZVertical,0.2003435868227316,-0.6303197256620952,0.07875679841744178,-0.7458933284078059,0.9087457060813904,0.3981538116931915,-0.1251189857721329,43.04663848876953,1.732795715332031,7.13545036315918,2,15925.411432375,unknown,2,2016-11-02 11:08:06.681,2016-11-02 11:00:50.593,182,129.4188,0,0,2016-11-02 11:07:44.396,15922.995169,0,-1.535104,101.4368,10.17.84.226,22.177.68.227,5,1,0.59,0
2016-11-02 11:08:07.711,109,27EF5EA5-EEF3-418E-90BD-90987371AE6E,my_iOS_device_1,1478110086.999777,37.35296992122881,-122.0354919322971,50.57123,0,85.4296875,4,10,1478110087.700432,43.93782806396484,3.387214660644531,7.64068603515625,256.8648986816406,243.4057312011719,10,15926.400241375,0.6526336669921875,0.411895751953125,-0.0596160888671875,15926.388603375,0.3344980929200235,0.4952270552412487,0.6689349331349751,15926.388603375,0.1445607090184367,1.437977811466595,-0.4017566492375237,0.4105100631713867,0.4175985157489777,0.673652708530426,-0.3484876155853271,0.02061588875949383,0.0599331296980381,XArbitraryCorrectedZVertical,0.1963564839684738,-0.6328524501907425,0.07782331111108827,-0.7449063295064662,0.9122693538665771,0.3910357356071472,-0.1218838170170784,43.04663848876953,1.732795715332031,7.13545036315918,2,15925.411432375,unknown,2,2016-11-02 11:08:06.681,2016-11-02 11:00:50.593,182,129.4188,0,0,2016-11-02 11:07:44.396,15922.995169,0,-1.535104,101.4368,10.17.84.226,22.177.68.227,5,1,0.59,0
2016-11-02 11:08:07.713,110,27EF5EA5-EEF3-418E-90BD-90987371AE6E,my_iOS_device_1,1478110086.999777,37.35296992122881,-122.0354919322971,50.57123,0,85.4296875,4,10,1478110087.700432,43.93782806396484,3.387214660644531,7.64068603515625,256.8648986816406,243.4057312011719,10,15926.409922375,0.7865753173828125,0.4439697265625,-0.02301025390625,15926.398596375,0.253182730092198,0.01378638601501319,0.5712323411715651,15926.398596375,0.1415677339917797,1.437302015307206,-0.3952703862695344,0.329194575548172,-0.06384198367595673,0.5759500861167908,-0.2620477080345154,0.02683801203966141,0.06321921199560165,XArbitraryCorrectedZVertical,0.1930789665050749,-0.633484697705499,0.07675006863692603,-0.7453368885480638,0.9146813750267029,0.3850577473640442,-0.1228353008627892,42.93415832519531,0.743983268737793,7.93944787979126,2,15925.411432375,unknown,2,2016-11-02 11:08:06.681,2016-11-02 11:00:50.593,182,129.4188,0,0,2016-11-02 11:07:44.396,15922.995169,0,-1.535104,101.4368,10.17.84.226,22.177.68.227,5,1,0.59,0
2016-11-02 11:08:07.727,111,27EF5EA5-EEF3-418E-90BD-90987371AE6E,my_iOS_device_1,1478110086.999777,37.35296992122881,-122.0354919322971,50.57123,0,85.4296875,4,10,1478110087.700432,43.93782806396484,3.387214660644531,7.64068603515625,256.8648986816406,243.4057312011719,10,15926.419595375,0.90496826171875,0.4350128173828125,-0.07000732421875,15926.408586375,0.06072486654376878,-0.02084855659368532,0.3339289753950735,15926.408586375,0.1401504314056516,1.43553107902499,-0.3910687327694539,0.1367366313934326,-0.09847684949636459,0.3386467099189758,-0.1294821202754974,0.06279304623603821,0.1016617715358734,XArbitraryCorrectedZVertical,0.1911690310408778,-0.6333390783535883,0.07573421148668985,-0.7460565277588457,0.9160574078559875,0.3811766803264618,-0.1246720254421234,42.93415832519531,0.743983268737793,7.93944787979126,2,15925.411432375,unknown,2,2016-11-02 11:08:06.681,2016-11-02 11:00:50.593,182,129.4188,0,0,2016-11-02 11:07:44.396,15922.995169,0,-1.535104,101.4368,10.17.84.226,22.177.68.227,5,1,0.59,0
2016-11-02 11:08:07.735,112,27EF5EA5-EEF3-418E-90BD-90987371AE6E,my_iOS_device_1,1478110086.999777,37.35296992122881,-122.0354919322971,50.57123,0,85.4296875,4,10,1478110087.729907,44.00768280029297,3.037986755371094,8.109931945800781,256.9936218261719,243.5344390869141,10,15926.429224375,1.133010864257812,0.395538330078125,0.0482635498046875,15926.418568375,-0.1044848643115148,-0.07280682946113125,0.1882567269288293,15926.418568375,0.1404031134653219,1.434469961004841,-0.3888878988845268,-0.02847331948578358,-0.1504348814487457,0.1929744631052017,-0.01177775859832764,0.0558532290160656,0.05574935302138329,XArbitraryCorrectedZVertical,0.1904946835888263,-0.6331140787187806,0.07482588483468376,-0.7465115041385134,0.9167460203170776,0.3791595995426178,-0.1257566809654236,42.93415832519531,0.743983268737793,7.93944787979126,2,15925.411432375,unknown,2,2016-11-02 11:08:06.681,2016-11-02 11:00:50.593,182,129.4188,0,0,2016-11-02 11:07:44.396,15922.995169,0,-1.535104,101.4368,10.17.84.226,22.177.68.227,5,1,0.59,0
2016-11-02 11:08:07.744,113,27EF5EA5-EEF3-418E-90BD-90987371AE6E,my_iOS_device_1,1478110086.999777,37.35296992122881,-122.0354919322971,50.57123,0,85.4296875,4,10,1478110087.729907,44.00768280029297,3.037986755371094,8.109931945800781,256.9936218261719,243.5344390869141,10,15926.438908375,1.160842895507812,0.235015869140625,-0.0128173828125,15926.428569375,-0.04818217675782258,-0.06485463044615465,-0.03373532679246974,15926.428569375,0.1404177937525988,1.432840550867555,-0.388436144374641,0.02782921679317951,-0.1424825340509415,-0.02901760116219521,0.2163014113903046,0.01679680310189724,0.1755373626947403,XArbitraryCorrectedZVertical,0.1903955038282364,-0.6325445821094329,0.0745176914864816,-0.74705021077669,0.9167094826698303,0.3787415325641632,-0.1272738128900528,42.96803283691406,0.3570451736450195,7.781454563140869,2,15925.411432375,unknown,2,2016-11-02 11:08:06.681,2016-11-02 11:00:50.593,182,129.4188,0,0,2016-11-02 11:07:44.396,15922.995169,0,-1.535104,101.4368,10.17.84.226,22.177.68.227,5,1,0.59,0
2016-11-02 11:08:07.787,114,27EF5EA5-EEF3-418E-90BD-90987371AE6E,my_iOS_device_1,1478110086.999777,37.35296992122881,-122.0354919322971,50.57123,0,85.4296875,4,10,1478110087.759408,43.55367279052734,2.583984375,8.344566345214844,256.845947265625,243.3867645263672,10,15926.448566375,0.990234375,0.1547088623046875,-0.127288818359375,15926.438559375,-0.0885106914610015,0.07378607379395338,-0.3323217576772107,15926.438559375,0.1398856934734584,1.432250579676482,-0.391029507719959,-0.01249937620013952,-0.003841751720756292,-0.3276040554046631,0.2451845705509186,-0.146124541759491,0.1148611605167389,XArbitraryCorrectedZVertical,0.191195020208694,-0.6321433331645944,0.07550663660947515,-0.7470863527135634,0.9156583547592163,0.381140410900116,-0.1276785433292389,42.96803283691406,0.3570451736450195,7.781454563140869,2,15925.411432375,unknown,2,2016-11-02 11:08:06.681,2016-11-02 11:00:50.593,182,129.4188,0,0,2016-11-02 11:07:44.396,15922.995169,0,-1.535104,101.4368,10.17.84.226,22.177.68.227,5,1,0.59,0
2016-11-02 11:08:07.789,115,27EF5EA5-EEF3-418E-90BD-90987371AE6E,my_iOS_device_1,1478110086.999777,37.35296992122881,-122.0354919322971,50.57123,0,85.4296875,4,10,1478110087.759408,43.55367279052734,2.583984375,8.344566345214844,256.845947265625,243.3867645263672,10,15926.458275375,0.857177734375,0.2641143798828125,-0.3115234375,15926.448551375,-0.1853592076628231,0.2987669932066483,-0.2542352113549974,15926.448551375,0.140486732923935,1.434141793460664,-0.3941022979624348,-0.1093481183052063,0.2211394160985947,-0.2495175004005432,0.07550078630447388,-0.2292705923318863,-0.001502351718954742,XArbitraryCorrectedZVertical,0.1924328855263733,-0.6325158901372803,0.07646676914179415,-0.7463551879024019,0.9147335886955261,0.383979469537735,-0.1257864683866501,42.96803283691406,0.3570451736450195,7.781454563140869,2,15925.411432375,unknown,2,2016-11-02 11:08:06.681,2016-11-02 11:00:50.593,182,129.4188,0,0,2016-11-02 11:07:44.396,15922.995169,0,-1.535104,101.4368,10.17.84.226,22.177.68.227,5,1,0.59,0
2016-11-02 11:08:07.790,116,27EF5EA5-EEF3-418E-90BD-90987371AE6E,my_iOS_device_1,1478110086.999777,37.35296992122881,-122.0354919322971,50.57123,0,85.4296875,4,10,1478110087.759408,43.55367279052734,2.583984375,8.344566345214844,256.845947265625,243.3867645263672,10,15926.467951375,0.7767791748046875,0.3067779541015625,-0.31591796875,15926.458542375,0.001763278957741464,0.3228028209929405,-0.01810470172257668,15926.458542375,0.1402486720391904,1.436579813436876,-0.3947610874328712,0.07777421921491623,0.245175376534462,-0.01338700391352177,-0.05760892108082771,-0.1204732805490494,-0.1880013644695282,XArbitraryCorrectedZVertical,0.1925037612043281,-0.6333887132891134,0.07700549103457981,-0.745540873561368,0.9147866368293762,0.3845876753330231,-0.1235220804810524,42.95029830932617,0.6230535507202148,7.862191677093506,2,15925.411432375,unknown,2,2016-11-02 11:08:06.681,2016-11-02 11:00:50.593,182,129.4188,0,0,2016-11-02 11:07:44.396,15922.995169,0,-1.535104,101.4368,10.17.84.226,22.177.68.227,5,1,0.59,0
